"Version","Class","Domain","Data Collection Scenario/Implementation Option","Variable Order","CDASHIG Variable","CDASHIG Variable Label","DRAFT CDASHIG Definition","Question Text","Prompt","Type","CDASHIG Core","Case Report Form Completion Instructions","SDTMIG Target","Mapping Instructions","CDISC CT Codelist Code(s), Subset Codes(s)","Codelist Submission Value","Implementation Notes"
"CDASHIG v2.3","Interventions","AG",,"1","STUDYID","Study Identifier","A unique identifier for a study.","What is the study identifier?","[Protocol/Study]","Char","HR",,"STUDYID","Maps directly to the SDTMIG variable listed in the SDTMIG Target column.","","","Although this field is not typically captured on a CRF, it should be displayed clearly on the CRF and/or in the EDC system. This field can be included into the database or populated during SDTM-based dataset creation before submission."
"CDASHIG v2.3","Interventions","AG",,"2","SITEID","Study Site Identifier","A unique identifier for a site within a study.","What is the site identifier?","Site (Identifier)","Char","HR",,"SITEID","Maps directly to the SDTMIG variable listed in the SDTMIG Target column.","","","Paper: This is typically preprinted in the header of each CRF page for single site studies. For studies with multiple sites, this field may be left blank so that the number can be recorded by the site, or it may be preprinted on CRFs that are shipped to each site. EDC: This should be prepopulated."
"CDASHIG v2.3","Interventions","AG",,"3","SUBJID","Subject Identifier for the Study","A unique subject identifier within a site and a study.","What [is/was] the (study) [subject/participant] identifier?","[Subject/Participant] (Identifier)","Char","HR","Record the identifier for the subject.","SUBJID","Maps directly to the SDTMIG variable listed in the SDTMIG Target column.","","","Paper: This is typically recorded in the header of each CRF page. EDC: The subject identifiers may be system generated. This CDASH variable is typically collected in all CDASH domains. However, this CDASH variable is populated only in the SDTM DM domain. For more information, refer to the SDTMIG."
"CDASHIG v2.3","Interventions","AG",,"4","AGCAT","Category for Agent","A grouping of topic-variable values based on user-defined characteristics.","What is the category for the [procedure/assessment agent]?","Procedure Agent Category; NULL","Char","O","Record the procedure agent category, if not preprinted on the CRF.","AGCAT","Maps directly to the SDTMIG variable listed in the SDTMIG Target column.","","","Sponsor-defined controlled terminology. This would most commonly be either a heading or a preprinted category value on the CRF, not a question to which the site would provide an answer. If a question is asked, the response would typically be a sponsor-defined codelist. If the form is laid out as a grid, then words such as ""Category"" can be included as the column header."
"CDASHIG v2.3","Interventions","AG",,"5","AGSCAT","Subcategory for Agent","A sub-division of the AGCAT values based on user-defined characteristics.","What is the subcategory for the [procedure/assessment agent]?","Procedure Agent Subcategory; NULL","Char","O","Record the procedure agent subcategory, if not preprinted on the CRF.","AGSCAT","Maps directly to the SDTMIG variable listed in the SDTMIG Target column.","","","Sponsor-defined controlled terminology. This would most commonly be preprinted on the CRF or screen and prepopulated in the data management system. This is not typically a question to which the site would provide an answer."
"CDASHIG v2.3","Interventions","AG",,"6","AGYN","Any Procedure Agent Taken","An indication of whether any procedure/assessment agent(s) were administered.","[Were/Was] there any [procedure/assessment agent(s)] taken/administered?","Any procedure agents","Char","O","Indicate if the subject was administered any procedure agents. If Yes, include the appropriate details where indicated on the CRF.","","Does not map to an SDTMIG variable. The SDTM annotated CRF indicates that this field is NOT SUBMITTED.","C66742","NY","The intent/purpose of collecting this field is to help with data cleaning and monitoring. It provides verification that all other fields on the CRF were deliberately left blank."
"CDASHIG v2.3","Interventions","AG",,"7","AGSPID","AG Sponsor-Defined Identifier","A sponsor-defined identifier. In CDASH, this is typically used for preprinted or auto-generated numbers on the CRF, or any other type of identifier that does not already have a defined CDASH identifier field.","[Sponsor defined question]","[Sponsor defined]","Char","O","If collected on the CRF, sponsor may insert instructions to ensure each record has a unique identifier.","AGSPID","Maps directly to the SDTMIG variable listed in the SDTMIG Target column. May be used to create RELREC to link this record with a record in another domain.","","","Because SPID is a sponsor-defined identifier, conformance to Question Text or Item Prompt is not applicable. Typically used as an identifier in a data query to communicate clearly to the site the specific record in question or to reconcile procedure agent records with AEs and/or MH. May be used to record preprinted number (e.g., line number, record number) on the CRF. This field may be populated by the sponsor's data collection system."
"CDASHIG v2.3","Interventions","AG",,"8","AGTRT","Reported Agent Name","Verbatim name of procedure/assessment agent administered.","What was the [procedure/assessment agent] [name/term]?","[Procedure/Assessment Agent]","Char","HR","Record only 1 procedure agent per line. Provide the full trade or proprietary name of the procedure agent; otherwise the generic name may be recorded.","AGTRT","Maps directly to the SDTMIG variable listed in the SDTMIG Target column.","","","In most cases, the verbatim drug names or treatment will be coded to a standard dictionary (e.g., WHODrug) after the data have been collected on the CRF. For the collection of verbatim procedure agents, the recommendation is to ask sites to provide the full trade or proprietary name since it is more exact than the generic. The full trade name provides the base generic and the appropriate salt for that particular drug. In addition, for coding purposes it helps with ATC classification system code selection. For example, Tylenol with codeine #1 has a different ATC code than Tylenol with codeine #3."
"CDASHIG v2.3","Interventions","AG",,"9","AGPRESP","AG Prespecified","An indication that a specific procedure/assessment agent or group of agents is prespecified on a CRF.",,,"Char","O",,"AGPRESP","Maps directly to the SDTMIG variable listed in the SDTMIG Target column.","C66742","NY","For prespecified interventions, a hidden field on a CRF defaulted to ""Y"", or added during the SDTM dataset creation. If a study collects both prespecified and free-text interventions, the value of AGPRESP should be ""Y"" for all prespecified interventions and null for interventions reported as free text."
"CDASHIG v2.3","Interventions","AG",,"10","AGOCCUR","AG Occurrence","An indication whether the given procedure/assessment agent or group of agents was administered when information about the occurrence of a specific procedure/assessment agent is solicited.","[Has/Was] the subject (been) administered the [procedure/assessment agent]?","[AGTRT]","Char","O","Indicate if the procedure agent was administered, by checking Yes or No.","AGOCCUR","Maps directly to the SDTMIG variable listed in the SDTMIG Target column. If the response was not asked or answered, populate the SDTMIG variable AGSTAT with ""NOT DONE"".","C66742","NY","AGOCCUR is used to report the occurrence of a prespecified procedure agent. AGOCCUR is not used for spontaneously free-text reported procedure agent(s). The site should be able to indicate that the response was not asked or answered."
"CDASHIG v2.3","Interventions","AG",,"11","AGDOSE","AG Dose per Administration","The dose of procedure/assessment agent (e.g., --TRT ) given at one time represented as a numeric value.","What was the individual dose per administration of the [procedure/assessment agent]?","[Dose/Amount] (per administration)","Num","O","Record the dose of the [procedure agent] taken per administration (e.g., 200).","AGDOSE","Maps directly to the SDTMIG variable listed in the SDTMIG Target column.","","","Used when the dose/amount administered has only numeric entries. If non-numeric entries are possible, use the CDASH field AGDSTXT."
"CDASHIG v2.3","Interventions","AG",,"12","AGDSTXT","Procedure Agents Dose Description","The dose of procedure/assessment agent administered per instance.","What was the individual dose of the [procedure/assessment agent]?","Dose","Char","O","Record the dose of [procedure agent] taken per administration (e.g., 200).","AGDOSE; AGDOSTXT","This does not map directly to an SDTMIG variable. Numeric values map to AGDOSE in SDTM. Non-numeric values (e.g., 200-400) map to AGDOSTXT in SDTM.","","","Defining this data collection field as a dose text field allows for flexibility in capturing dose entries as numbers, text or ranges. The data collected in this dose text-format field should be separated or mapped to either SDTMIG AGDOSE (if numeric) or AGDOSTXT (if text)."
"CDASHIG v2.3","Interventions","AG",,"13","AGDOSU","AG Dose Units","The unit associated with the procedure/assessment agent.","What is the unit (for the dose of the [procedure/assessment agent])?","(Dose) Unit","Char","R/C","Record the dose unit of the [procedure agent] administered (e.g., mg).","AGDOSU","Maps directly to the SDTMIG variable listed in the SDTMIG Target column.","C71620; C78417","UNIT; CMDOSU","When sponsors collect data for amount of dose administered (i.e., Dose, Total Daily Dose), the unit must be collected as well (if applicable)."
"CDASHIG v2.3","Interventions","AG",,"14","AGDOSFRM","AG Dose Form","The pharmaceutical dosage form in which the AGTRT is physically presented.","What was the dose form of the [procedure/assessment agent]?","Dose Form","Char","O","Record the pharmaceutical dosage form (e.g., TABLET CAPSULE SYRUP) for the [procedure agent] [administered].","AGDOSFRM","Maps directly to the SDTMIG variable listed in the SDTMIG Target column.","C66726; C78418","FRM; CMDOSFRM","Some drugs have multiple forms and this field may be needed to code the drug to an ATC level. However, in general, this level of detail should not be necessary except for procedure agents of interest."
"CDASHIG v2.3","Interventions","AG",,"15","AGDOSFRQ","AG Dosing Frequency per Interval","The number of doses administered during a specific interval.","What was the frequency of the [procedure/assessment agent]?","Frequency","Char","O","Record how often the [procedure agent] was administered (e.g., ONCE).","AGDOSFRQ","Maps directly to the SDTMIG variable listed in the SDTMIG Target column.","C71113; C78419","FREQ; CMDOSFRQ","The frequency of the procedure agent. When collected, the recommendation is to collect dosing information in separate fields (e.g., AGDOSE, AGDOSEU, AGDOSFRQ) for specific and consistent data collection and to enable programmatically utilizing these data."
"CDASHIG v2.3","Interventions","AG",,"16","AGROUTE","AG Route of Administration","The route of administration of the procedure/assessment agent.","What was the route of administration of the [procedure/assessment agent]?","Route","Char","R/C","Provide the route of administration for the [procedure agent].","AGROUTE","Maps directly to the SDTMIG variable listed in the SDTMIG Target column.","C66729; C78420","ROUTE; CMROUTE","This additional information may be important to collect on the CRF when the sponsor wants to capture a procedure agent's route of administration, for purposes such as coding, and the procedure agent may have more than 1 route. Some companies may use route in coding procedure agents to be able to choose a precise preferred name and ATC code."
"CDASHIG v2.3","Interventions","AG",,"17","AGSTDAT","Procedure Agent Start Date","The start date when the procedure/assessment agent was first administered, represented in an unambiguous date format (e.g., DD-MON-YYYY).","What was the procedure/assessment agent] start date?","Start Date","Char","R/C","Record the date the procedure agent was first administered using this format (DD-MON-YYYY). Procedure agent(s) administered during the study are expected to have a complete start date.","AGSTDTC","This does not map directly to an SDTMIG variable. For the SDTM submission dataset, concatenate all collected CDASH START DATE and TIME components and populate the SDTMIG variable AGSTDTC in ISO 8601 format.","","","The assumption is that sponsors should either have a start date or will indicate that the procedure agent was started before, during or after the study period. The preferred method is to collect a complete start date. Partial dates (e.g., providing year only) for procedure agent started a considerable amount of time prior to the start of study are acceptable."
"CDASHIG v2.3","Interventions","AG",,"18","AGSTTIM","Procedure Agent Start Time","The time the procedure/assessment agent was started, represented in an ambiguous time format (e.g., h:mm:ss).","What was the [procedure/assessment agent] start time?","Start Time","Char","R/C","Record the time (as complete as possible) that the [procedure agent] was started.","AGSTDTC","This does not map directly to an SDTMIG variable. For the SDTM submission dataset, concatenate all collected CDASH START DATE and TIME components and populate the SDTMIG variable AGSTDTC in ISO 8601 format.","","","Recommend collecting the time a procedure agent was started only when a protocol or data collection scenarios supports it. Typically, a start time is not collected unless the subject is under the direct care of the site at the time a procedure agent administered or the subject records the start time in a diary. See Section 3.7, Mapping Relative Times from Collection to Submissions, and the SDTMIG for more information."
"CDASHIG v2.3","Interventions","AG",,"19","AGPRIOR","Prior Procedure Agents","Indication the procedure/assessment agent was administered prior to [AGSTTPT] or prior to the date in DM.RFSTDTC.","Was the [procedure/assessment agent] administered prior to AGSTTPT? Was the procedure/assessment agent given prior to study start?","Prior to [AGSTTPT]; prior to study","Char","O","Check if the [procedure agent] was started before the study.","AGSTRF; AGSTRTPT","This does not map directly to an SDTMIG variable. May be used to populate a value into an SDTMIG relative timing variable such as AGSTRF or AGSTRTPT. When populating AGSTRF or AGSTRTPT, if the value of the CDASH field AGPRIOR is ""Y"", a value from the CDISC CT (STENRF) may be used. When AGPRIOR refers to the Study Reference Period (defined in DM.RFSTDTC to DM.RFENDTC), the SDTMIG variable AGSTRF should be populated. When AGPRIOR is compared to another time point, the SDTMIG variables AGSTRTPT and AGSTTPT should be used. Note: AGSTRTPT must be in reference to the time-point anchor described in AGSTTPT.","C66742","NY","Sponsors may collect this information rather than start dates. See Section 3.7, Mapping Relative Times from Collection to Submissions, and the SDTMIG for more information."
"CDASHIG v2.3","Interventions","AG",,"20","AGONGO","Ongoing Procedure Agents","Indication the procedure/assessment agent is ongoing when no end date is provided.","Was the [procedure/assessment agent] ongoing (as of the [study-specific time point or period])?","Ongoing (as of [the study-specific time point or period])","Char","R/C","Record the [procedure agent] as ongoing if the subject has not stopped taking the procedure agent at [the time point defined by the study]. If the procedure agent is ongoing, the end date should be left blank.","AGENRF; AGENRTPT","This does not map directly to an SDTMIG variable. May be used to populate a value into an SDTMIG relative timing variable such as AGENRF or AGENRTPT. When populating AGENRF, if the value of AGONGO is ""Y"", the values of ""DURING"", ""AFTER"" or ""DURING/AFTER"" may be used. When populating AGENRTPT, if the value of AGONGO is ""Y"", the value of ""ONGOING"" may be used. When AGONGO refers to the Study Reference Period (defined in DM.RFSTDTC to DM.RFENDTC), the SDTMIG variable AGENRF should be populated. When AGONGO is used in conjunction with another time point, the SDTMIG variables AGENRTPT and AGENTPT should be used. Note: AGENRTPT must be in reference to the time-point anchor described in AGENTPT.","C66742","NY","This box should be checked to indicate that the procedure agent has not stopped at the time of data collection. It is expected that every recorded procedure agent should have either an end date or be checked as ongoing, but not both. However, in cases where ongoing procedure agents are not permitted, it may not be necessary to include an Ongoing field in the CRF. See Section 3.7, Mapping Relative Times from Collection to Submissions, for more information about collecting relative date/time; see the SDTMIG for information about mapping relative times."
"CDASHIG v2.3","Interventions","AG",,"21","AGENDAT","Procedure Agents End Date","The date the procedure/assessment agent was stopped/ended, represented in an unambiguous date format (e.g. DD-MON-YYYY).","What was the [procedure/assessment agent's] end date?","End Date","Char","R/C","Record the date the procedure agent was topped using this format (DD-MM-YYYY). If the subject has not stopped [administering/being administered] the procedure agent leave this field blank.","AGENDTC","This does not map directly to an SDTMIG variable. For the SDTM submission dataset, concatenate all collected CDASH END DATE and TIME components and populate the SDTMIG variable CMENDTC in ISO 8601 format.","","","The assumption is that sponsors should either have an end date or will indicate that the procedure agent was ongoing at the time of collection or at the end of the study. However, in cases where the end date can be determined from dates collected elsewhere in the CRF it is not necessary to include an end date in the CRF. For example, if all procedure agents are administered only once during a trial, the end date will be the same as the start date."
"CDASHIG v2.3","Interventions","AG",,"22","AGENTIM","Procedure Agents End Time","The time the concomitant medication/treatment/therapy was started, represented in an unambiguous time format (e.g., hh:mm:ss).","What was the [procedure/assessment agent's] end time?","End Time","Char","R/C","Record the time (as complete as possible) that the procedure agent was stopped.","AGENDTC","This does not map directly to an SDTMIG variable. For the SDTM submission dataset, concatenate all collected CDASH END DATE and TIME components and populate the SDTMIG variable AGENDTC in ISO 8601 format.","","","Recommend collecting the time a procedure agent was ended only when a protocol or data collection scenarios require it or the subject records the end time in a diary. Typically, an end time is not collected unless the subject is under the direct care of the site at the time a procedure agent is stopped."
"CDASHIG v2.3","Interventions","AG",,"23","AGDECOD","Standardized Agent Name","The dictionary or sponsor-defined standardized text description of the topic variable (AGTRT) or the modified topic variable (AGMODIFY), if applicable.",,,"Char","O",,"AGDECOD","Maps directly to the SDTMIG variable listed in the SDTMIG Target column.","","","This is typically not a data collection field that will appear on the CRF. If the sponsor chooses to code the procedure, the sponsor will populate this through the coding process. If PRPRESP is used, and the information about a specific standardized procedure name is being solicited, the data from AGTRT may map directly to the SDTMIG AGDECOD variable."
"CDASHIG v2.3","Interventions","AG",,"24","AGCLAS","AG Agent Class","The class for the agent, often obtained from a coding dictionary.",,,"Char","O",,"AGCLAS","Maps directly to the SDTMIG variable listed in the SDTMIG Target column.","","","This field does not typically appear on the CRF. Sponsors will populate this through the coding process. This would generally be the class used for analysis."
"CDASHIG v2.3","Interventions","AG",,"25","AGCLASCD","AG Agent Class Code","The assigned dictionary code for the class of agent.",,,"Num","O",,"AGCLASCD","Maps directly to the SDTMIG variable listed in the SDTMIG Target column.","","","This field does not typically appear on the CRF. Sponsors will populate this through the coding process. This would generally be the class code used for analysis."
"CDASHIG v2.3","Interventions","CM",,"1","STUDYID","Study Identifier","A unique identifier for a study.","What is the study identifier?","[Protocol/Study]","Char","HR",,"STUDYID","Maps directly to the SDTMIG variable listed in the SDTMIG Target column.","","","Although this field is not typically captured on a CRF, it should be displayed clearly on the CRF and/or the EDC system. This field can be included into the database or populated during SDTM-based dataset creation before submission."
"CDASHIG v2.3","Interventions","CM",,"2","SITEID","Study Site Identifier","A unique identifier for a site within a study.","What is the site identifier?","Site (Identifier)","Char","HR",,"SITEID","Maps directly to the SDTMIG variable listed in the SDTMIG Target column.","","","Paper: For single-site studies, this is typically preprinted in the header of each CRF page. For studies with multiple sites, this field may be left blank so that the number can be recorded by the site, or it may be preprinted on CRFs that are shipped to each site. \n EDC: This should be prepopulated."
"CDASHIG v2.3","Interventions","CM",,"3","SUBJID","Subject Identifier for the Study","A unique subject identifier within a site and a study.","What [is/was] the (study) [subject/participant] identifier?","[Subject/Participant] (Identifier)","Char","HR","Record the identifier for the subject.","SUBJID","Maps directly to the SDTMIG variable listed in the SDTMIG Target column.","","","Paper: This is typically recorded in the header of each CRF page. \n EDC: The subject identifiers may be system-generated. \n This CDASH variable is typically collected in all CDASH domains. However, this CDASH variable is populated only in the SDTMIG DM domain. For more information, refer to the SDTMIG."
"CDASHIG v2.3","Interventions","CM",,"4","CMCAT","Category for Medication","A grouping of topic-variable values based on user-defined characteristics.","What is the category for the (concomitant) [medication/treatment/therapy]?","(Concomitant) [Medication/Treatment/Therapy Category]; NULL","Char","O","Record the (concomitant) [medication/treatment/therapy] category, if not preprinted on the CRF.","CMCAT","Maps directly to the SDTMIG variable listed in the SDTMIG Target column.","","","Sponsor-defined controlled terminology. This would most commonly be either a heading or a preprinted category value on the CRF, not a question to which the site would provide an answer. If a question is asked, the response would typically be a sponsor-defined codelist. If the form is laid out as a grid, then words such as ""Category"" can be included in the column heading."
"CDASHIG v2.3","Interventions","CM",,"5","CMSCAT","Subcategory for Medication","A sub-division of the CMCAT values based on user-defined characteristics.","What is the subcategory for the (concomitant) [medication/treatment/therapy]?","(Concomitant) [Medication/Treatment/Therapy subcategory]; NULL","Char","O","Record (concomitant) [medication/treatment/therapy] subcategory, if not preprinted on the CRF.","CMSCAT","Maps directly to the SDTMIG variable listed in the SDTMIG Target column.","","","Sponsor-defined controlled terminology. This would most commonly be preprinted on the CRF or screen and prepopulated in the data management system. This is not typically a question to which the site would provide an answer."
"CDASHIG v2.3","Interventions","CM",,"6","CMYN","Any Concomitant Medications Taken","An indication of whether any (concomitant) medications/treatments/therapies were taken/given.","Were/Was any (concomitant) [medication(s)/treatment(s)/therapy(ies)] taken?","Any (Concomitant) [Medication(s)/Treatment(s)/Therapy(ies)]","Char","O","Indicate if the subject took any (concomitant) [medications/treatments]. If Yes, include the appropriate details where indicated on the CRF.","","Does not map to an SDTMIG variable. The SDTM annotated CRF indicates that this field is NOT SUBMITTED.","C66742","NY","The intent/purpose of collecting this field is to help with data cleaning and monitoring. It provides verification that all other fields on the CRF were deliberately left blank."
"CDASHIG v2.3","Interventions","CM",,"7","CMSPID","CM Sponsor-Defined Identifier","A sponsor-defined identifier. In CDASH, this is typically used for preprinted or auto-generated numbers on the CRF, or any other type of identifier that does not already have a defined CDASH identifier field.","[Sponsor-defined question]","[Sponsor defined]","Char","O","If collected on the CRF, sponsor may insert instructions to ensure each record has a unique identifier.","CMSPID","Maps directly to the SDTMIG variable listed in the SDTMIG Target column. May be used to create RELREC to link this record with a record in another domain.","","","Because SPID is a sponsor-defined identifier, conformance to Question Text or Item Prompt is not applicable. Typically used as an identifier in a data query to communicate clearly to the site the specific record in question or to reconcile concomitant medication/treatment records with AEs and/or MH. May be used to record preprinted number (e.g. line number, record number) on the CRF. This field may be populated by the sponsor's data collection system."
"CDASHIG v2.3","Interventions","CM",,"8","CMTRT","Reported Name of Drug, Med, or Therapy","Verbatim medication name or treatments (include only treatments with data collection characteristics similar to medications).","What was the (concomitant) [medication/treatment/therapy] (name/term)?","(Concomitant) [Medication/Treatment/Therapy]","Char","HR","Record only 1 [medication/treatment/therapy] per line. Provide the full trade or proprietary name of the [medication/treatment/therapy]; otherwise the generic name may be recorded.","CMTRT","Maps directly to the SDTMIG variable listed in the SDTMIG Target column.","","","In most cases, the verbatim drug names or treatment will be coded to a standard dictionary (e.g., WHODrug) after data have been collected on the CRF. For the collection of verbatim drug name or treatments, the recommendation is for sites to provide the full trade or proprietary name, which is more exact than the generic. The full trade name provides the base generic and the appropriate salt for that particular drug. In addition, for coding purposes, it helps with ATC selection (e.g., Tylenol with codeine #1 has a different ATC code than Tylenol with codeine #3). This field can be used for either prior or concomitant medication/treatments."
"CDASHIG v2.3","Interventions","CM",,"9","CMPRESP","CM Prespecified","An indication that a specific intervention or a group of interventions is prespecified on a CRF.",,,"Char","O",,"CMPRESP","Maps directly to the SDTMIG variable listed in the SDTMIG Target column.","C66742","NY","For prespecified interventions, this is a hidden field on a CRF defaulted to ""Y"", or added during the SDTM dataset creation. If a study collects both prespecified and free-text interventions, the value of CMPRESP should be ""Y"" for all prespecified interventions and null for interventions reported as free text."
"CDASHIG v2.3","Interventions","CM",,"10","CMOCCUR","CM Occurrence","An indication whether the prespecified medication/treatment/therapy (CMTRT) or the group of medications/treatments/therapies was administered when information about the occurrence of a specific intervention was solicited.","Did the subject take [prespecified (concomitant) medication/treatment/therapy/dose]?; Has the subject taken [prespecified (concomitant) medication/treatment/therapy/dose]?","[Specific (Concomitant) [Medication/Treatment/Therapy]","Char","O","Indicate if [specific medication/treatment] was taken by checking Yes or No.","CMOCCUR","Maps directly to the SDTMIG variable listed in the SDTMIG Target column. If the question was not asked or answered, populate the SDTMIG variable CMSTAT with ""NOT DONE"".","C66742","NY","CMOCCUR is used to report the occurrence of a prespecified medication/treatment. CMOCCUR is not used for spontaneously free-text reported concomitant medication/treatments. The site should be able to indicate that the question was not asked or answered."
"CDASHIG v2.3","Interventions","CM",,"11","CMINGRD","Concomitant Meds Active Ingredients","Medication ingredients.","What were the active ingredients?","Active Ingredients","Char","O","Prior to a subject's clinical visit, remind all subjects to bring all medications bottles, packs etc. they are taking with them to their clinical visit. Record all active ingredient(s) off the medication label and separate each ingredient with a comma for the name of drug medication or treatment taken. For example, the medication Dolmen, if manufactured in Spain, the active ingredients should be collected as noted below: Active Ingredient: Acetylsalicylic Acid, Ascorbic acid, codeine phosphate.","","Does not map to an SDTMIG variable. The SDTM annotated CRF indicates that this field is NOT SUBMITTED.","","","This may be collected in addition to the medication/treatment name. Collecting this provides more detailed information when coding to a medication dictionary like WHODrug Dictionary Enhanced Format C, which codes to the ingredient level for many trade-name medications. For example, depending on the country where it is manufactured, the active ingredients in the medication dolmen may be different: In Spain, acetylsalicylic acid, ascorbic acid, codeine phosphate; in Italy and Czech Republic, tenoxicam; in Estonia and Latvia, dexketoprofen trometamol."
"CDASHIG v2.3","Interventions","CM",,"12","CMINDC","CM Indication","The condition, disease, symptom, or disorder that the concomitant (non-study) medication/treatment/therapy was used to address or investigate (e.g., why the medication/treatment/therapy was taken or administered).","For what indication was the (concomitant) [medication/treatment/therapy] taken?","Indication","Char","R/C","Record the reason the medication was taken based on clinical investigator's evaluation. If taken to treat a condition, and a diagnosis was made, the indication should be the diagnosis. If taken to treat a condition, and no diagnosis was made, the indication should be the signs and symptoms. If taken as prophylaxis, report as ""Prophylaxis for"" and include a description of the condition(s).","CMINDC","Maps directly to the SDTMIG variable listed in the SDTMIG Target column.","","","This is not the pharmacological/therapeutic classification of an agent (e.g., antibiotic, analgesic), but rather the reason for its administration to the subject. This additional information is collected on the CRF when sponsors want to capture the reason(s) a subject took a medication/treatment. This information could be used as deemed appropriate for coding; analysis (e.g., in the classification of medications); reconciling medications/treatments taken by a subject with provided medical history; and/or AEs/SAEs, as part of the data clean-up and monitoring process."
"CDASHIG v2.3","Interventions","CM",,"13","CMAENO","Related Adverse Event ID","Identifier for the adverse event that is the indication for this medication/treatment/therapy.","What was the identifier for the adverse event(s) for which the (concomitant) [medication/treatment/therapy] was taken?","Adverse Event Identifier","Char","O","Record the identifier of the Adverse Event for which this (concomitant) [medication/treatment/therapy] was taken.","","This does not map directly to an SDTMIG variable. For SDTM submission datasets, may be used to create RELREC to link this record with a record in the AE domain.","","","The intent is to establish a link between the medication/treatment and the AE that was reported. CMAENO can be used to identify a relationship between records in CM dataset and records in the AE dataset. See the SDTMIG for information on RELREC."
"CDASHIG v2.3","Interventions","CM",,"14","CMMHNO","Related Medical History Event ID","Identifier for the medical history condition that is the indication for this medication/treatment/therapy.","What was the identifier for the medical history event(s) for which the (concomitant) [medication/treatment/therapy] was taken?","Medical History Event Identifier","Char","O","Record the identifier of the medical history event for which this (concomitant) [medication/treatment/therapy] was taken.","","This does not map directly to an SDTMIG variable. For SDTM submission datasets, may be used to create RELREC to link this record with a record in the MH domain.","","","The intent is to establish a link between the medical history condition and the medication/treatment taken for the condition. CMMHNO can be used to identify a relationship between records in the CM dataset and records in the MH dataset. See the SDTMIG for information on RELREC."
"CDASHIG v2.3","Interventions","CM",,"15","CMDOSE","CM Dose per Administration","The dose of medication/treatment (e.g., --TRT ) given at one time, represented as a numeric value.","What was the individual dose (of the concomitant [medication/treatment/therapy] per administration)?","[Dose/Amount] (per administration)","Num","O","Record the dose of (concomitant) [medication/treatment] taken per administration (e.g., 200).","CMDOSE","Maps directly to the SDTMIG variable listed in the SDTMIG Target column.","","","Used when the dose/amount taken/administered/consumed has only numeric entries. If non-numeric entries are possible, use the CDASH field CMDSTXT."
"CDASHIG v2.3","Interventions","CM",,"16","CMDSTXT","Concomitant Meds Dose Description","The dose of medication/treatment taken per administration.","What was the individual dose of the (concomitant) [medication/treatment/therapy]?","Dose","Char","O","Record the dose of (concomitant) [medication/treatment] taken per administration (e.g., 200).","CMDOSTXT; CMDOSE","This does not map directly to an SDTMIG variable. Numeric values map to CMDOSE in SDTM. Non-numeric values (e.g., ""200-400"") map to CMDOSTXT in SDTM.","","","Defining this data collection field as a dose text field allows for flexibility in capturing dose entries as numbers, text, or ranges. The data collected in this text-format field should be separated or mapped to either SDTMIG CMDOSE if numeric or CMDOSTXT if text."
"CDASHIG v2.3","Interventions","CM",,"17","CMDOSTOT","CM Total Daily Dose","The total amount of CMTRT taken over a day, using the units in CMDOSU.","What was the total daily dose of the (concomitant) [medication/treatment/therapy]?","Total Daily Dose","Num","O","Record the total dose of (concomitant) [medication/treatment/therapy] taken daily.","CMDOSTOT","Maps directly to the SDTMIG variable listed in the SDTMIG Target column.","","","For use when only total daily dose is collected on the CRF. For general medications/treatments, it is not recommended to use Total Daily Dose. Instead, this can be calculated from other fields (e.g., Units, Dose, Frequency)."
"CDASHIG v2.3","Interventions","CM",,"18","CMDOSU","CM Dose Units","The unit associated with the concomitant medication/treatment/therapy taken (e.g., mg in ""2 mg 3 times per day"").","What is the unit (for the dose of concomitant [medication/treatment/therapy])?","(Dose) Unit","Char","R/C","Record the dose unit of the dose of concomitant [medication/treatment/therapy] taken (e.g., mg.).","CMDOSU","Maps directly to the SDTMIG variable listed in the SDTMIG Target column.","C71620; C78417","UNIT; CMDOSU","When sponsors collect data for amount of dose taken (i.e., Dose, Total Daily Dose), Unit must be collected as well (if applicable)."
"CDASHIG v2.3","Interventions","CM",,"19","CMDOSFRM","CM Dose Form","The pharmaceutical dosage form in which the CMTRT is physically presented.","What was the dose form of the (concomitant) [medication/treatment/therapy]?","Dose Form","Char","O","Record the pharmaceutical dosage form (e.g., TABLET CAPSULE, SYRUP) of delivery for the concomitant [medication/treatment/therapy] taken.","CMDOSFRM","Maps directly to the SDTMIG variable listed in the SDTMIG Target column.","C66726; C78418","FRM; CMDOSFRM","Some drugs have multiple forms; this field may be needed to code the drug to an ATC level. However, in general, this level of detail should not be necessary except for medications/treatments of interest."
"CDASHIG v2.3","Interventions","CM",,"20","CMDOSFRQ","CM Dosing Frequency per Interval","The number of doses given/administered/taken during a specific interval.","What was the frequency of the (concomitant) [medication/treatment/therapy]?","Frequency","Char","O","Record how often the (concomitant) [medication/treatment/therapy] was taken (e.g., BID, PRN).","CMDOSFRQ","Maps directly to the SDTMIG variable listed in the SDTMIG Target column.","C71113; C78419","FREQ; CMDOSFRQ","The frequency of the concomitant medication/treatment. When collected, the recommendation is to collect dosing information in separate fields (e.g., CMDOSE, CMDOSEU, CMDOSFRQ) for specific and consistent data collection and to enable programmatically using these data."
"CDASHIG v2.3","Interventions","CM",,"21","CMROUTE","CM Route of Administration","The route of administration of the concomitant medication/treatment/therapy.","What was the route of administration of the (concomitant) [medication/treatment/therapy]?","Route","Char","R/C","Provide the route of administration for the (concomitant) [medication/treatment/therapy].","CMROUTE","Maps directly to the SDTMIG variable listed in the SDTMIG Target column.","C66729; C78420","ROUTE; CMROUTE","This additional information may be important to collect on the CRF when the sponsor wants to capture a medication's/treatment's route of administration, for purposes such as coding; also, the medication/treatment may have more than 1 route. Some companies may use route in coding medications/treatments, to be able to choose a precise preferred name and ATC code."
"CDASHIG v2.3","Interventions","CM",,"22","CMSTDAT","Concomitant Meds Start Date","The start date is when the concomitant medication/treatment/therapy was first taken, represented in an unambiguous date format (e.g., DD-MON-YYYY).","What was the (concomitant) [medication/treatment/therapy/dose] start date?","Start Date","Char","R/C","Record the date the concomitant [medication/treatment] was first taken using this format (DD-MON-YYYY). If the subject has been taking the concomitant [medication/treatment] for a considerable amount of time prior to the start of the study, it is acceptable to have an incomplete date. Concomitant [medication/treatment] taken during the study are expected to have a complete start date. Prior concomitant [medication/treatment] that are exclusionary should have both a start and end date.","CMSTDTC","This does not map directly to an SDTMIG variable. For the SDTM submission dataset, concatenate all collected CDASH START DATE and TIME components and populate the SDTMIG variable CMSTDTC in ISO 8601 format.","","","The assumption is that sponsors should either have a Start Date or will indicate that the medication or therapy was started before, during, or after the study period. The preferred method is to collect a complete Start Date. Partial dates (e.g., providing year only) for medications/treatment started a considerable amount of time prior to the start of study are acceptable."
"CDASHIG v2.3","Interventions","CM",,"23","CMSTTIM","Concomitant Meds Start Time","The time the concomitant medication/treatment/therapy was started, represented in an unambiguous time format (e.g., hh:mm:ss).","What was the (concomitant) [medication/treatment/therapy/dose] start time?","Start Time","Char","R/C","Record the time (as complete as possible) that the concomitant [medication/treatment] was started.","CMSTDTC","This does not map directly to an SDTMIG variable. For the SDTM submission dataset, concatenate all collected CDASH START DATE and TIME components and populate the SDTMIG variable CMSTDTC in ISO 8601 format.","","","Recommend collecting the time a concomitant medication/treatment was started only when a protocol or data collection scenarios supports it. Typically, a start time is not collected unless the subject is under the direct care of the site at the time a concomitant medication/treatment administered or the subject records the start time in a diary."
"CDASHIG v2.3","Interventions","CM",,"24","CMPRIOR","Prior Concomitant Meds","Indication the concomitant medication/treatment/therapy was given or taken prior to [CMSTTPT] or prior to the date in DM.RFSTDTC.","Was the (concomitant) [medication/treatment/therapy] given/taken prior to [CMSTTPT]?; Was the (concomitant) [medication/treatment/therapy] given/taken prior to study start?","Prior to [CMSTTPT]; Prior to Study","Char","O","Check if the concomitant [medication/treatment/therapy] was started before the study.","CMSTRF; CMSTRTPT","This does not map directly to an SDTMIG variable. May be used to populate a value into an SDTM relative timing variable such as CMSTRF or CMSTRTPT. When populating CMSTRF, or CMSTRTPT, if the value of the CDASH field CMPRIOR is ""Y"" a value from the CDISC CT (STENRF) may be used. When CMPRIOR refers to the Study Reference Period (defined in DM.RFSTDTC to DM.RFENDTC), the SDTM variable CMSTRF should be populated. When CMPRIOR is compared to another time point, the SDTM variables CMSTRTPT and CMSTTPT should be used. Note: CMSTRTPT must refer to the time-point anchor described in CMSTTPT.","C66742","NY","Sponsors may collect this information rather than start dates. See Section 3.7, Mapping Relative Times from Collection to Submissions, and the SDTMIG for more information."
"CDASHIG v2.3","Interventions","CM",,"25","CMONGO","Ongoing Concomitant Meds","Indication the concomitant medication/treatment/therapy is ongoing when no end date is provided.","Was the (concomitant) [medication/treatment/therapy] ongoing (as of [the study-specific time point or period])?","Ongoing (as of [the study-specific time point or period])","Char","R/C","Record the concomitant [medication/treatment/therapy] as ongoing if the subject has not stopped taking the concomitant [medication/treatment/therapy] at [the timepoint defined by the study]. If the concomitant medication is ongoing, the end date should be left blank","CMENRF; CMENRTPT","This does not map directly to an SDTM variable. May be used to populate a value into an SDTMIG relative timing variable (e.g., CMENRF, CMENRTPT). When populating CMENRF, if the value of CMONGO is ""Y"", the values of ""DURING"", ""AFTER"", or ""DURING/AFTER"" may be used. When populating CMENRTPT, if the value of CMONGO is ""Y"", the value of ""ONGOING"" may be used. When CMONGO refers to the Study Reference Period (defined in DM.RFSTDTC to DM.RFENDTC) the SDTM variable CMENRF should be populated. When CMONGO is used in conjunction with another time point, the SDTM variables CMENRTPT and CMENTPT should be used. Note: CMENRTPT must refer to a time-point anchor described in CMENTPT.","C66742","NY","This box should be checked to indicate that the concomitant medication/treatment has not stopped at the time of data collection. It is expected that every recorded medication/treatment should have either an end date or be checked as ongoing, but not both. However, in cases where ongoing concomitant medications/treatments are not permitted, it may not be necessary to include an Ongoing field in the CRF. See Section 3.7, Mapping Relative Times from Collection to Submission, for more information about collecting relative date/time; see the SDTMIG for information about mapping relative times."
"CDASHIG v2.3","Interventions","CM",,"26","CMENDAT","Concomitant Meds End Date","The date that the subject ended/stopped taking the concomitant medication/treatment/therapy, represented in an unambiguous date format (e.g., DD-MON-YYYY).","What was the (concomitant) [medication/treatment/therapy/dose] end date?","End Date","Char","R/C","Record the date the concomitant [medication/treatment] was stopped using this format (DD-MON-YYYY). If the subject has not stopped taking the concomitant [medication/treatment] leave this field blank.","CMENDTC","This does not map directly to an SDTMIG variable. For the SDTM submission dataset, concatenate all collected CDASH END DATE and TIME components and populate the SDTMIG variable CMENDTC in ISO 8601 format.","","","The assumption is that sponsors should either have an End Date or will indicate that the medication or therapy was ongoing at the time of collection or at the end of the study. However, in cases where the end date can be determined from dates collected elsewhere in the CRF it is not necessary to include an End Date field on the CRF. For example, if all concomitant medications/treatments are administered only once during a trial, the end date will be the same as the start date."
"CDASHIG v2.3","Interventions","CM",,"27","CMENTIM","Concomitant Meds End Time","The time when the subject ended/stopped taking the concomitant medication/treatment/therapy, represented in an unambiguous time format (e.g., hh:mm:ss).","What was the [medication/treatment/therapy/dose] end time?","End Time","Char","R/C","Record the time (as complete as possible) that the concomitant medication/treatment was stopped.","CMENDTC","This does not map directly to an SDTMIG variable. For the SDTM submission dataset, concatenate all collected CDASH END DATE and TIME components and populate the SDTMIG variable CMENDTC in ISO 8601 format.","","","Recommend collecting the time a concomitant medication or treatment was ended only when a protocol or data collection scenario requires it or the subject records the end time in a diary. Typically, an end time is not collected unless the subject is under the direct care of the site at the time a concomitant medication/treatment is stopped."
"CDASHIG v2.3","Interventions","CM",,"28","CMRSDISC","Reason for Treatment Discontinuation","The reason the treatment was discontinued.","What was the reason the (concomitant) [medication/treatment/therapy/ --TRT] was [discontinued/stopped/ended]?","Reason for discontinuation of concomitant medication/treatment","Char","O","Record the reason the concomitant medication/treatment was stopped.","CMRSDISC","Maps directly to the SDTMIG variable listed in the SDTMIG Target column.","","","Although frequently used for prior meds, this can be used for any intervention at any timepoint. \n When the dosing of a treatment is recorded over multiple successive records, this variable is applicable only for the (chronologically) last record for the treatment."
"CDASHIG v2.3","Interventions","CM",,"29","CMDECOD","Standardized Medication Name","The dictionary or sponsor-defined standardized text description of the topic variable, CMTRT, or the modified topic variable (CMMODIFY), if applicable.",,,"Char","O",,"CMDECOD","Maps directly to the SDTMIG variable listed in the SDTMIG Target column.","","","This field does not typically appear on the CRF. Sponsors will populate this through the coding process. Equivalent to the generic drug name in published (e.g., WHODrug, SNOMED, ICD9) or sponsor-defined dictionaries."
"CDASHIG v2.3","Interventions","CM",,"30","CMCLAS","CM Medication Class","The class for the intervention (often obtained from a coding dictionary).",,,"Char","O",,"CMCLAS","Maps directly to the SDTMIG variable listed in the SDTMIG Target column.","","","This field does not typically appear on the CRF. Sponsors will populate this through the coding process. This would generally be the class used for analysis."
"CDASHIG v2.3","Interventions","CM",,"31","CMCLASCD","CM Medication Class Code","The assigned dictionary code for the class for the intervention.",,,"Num","O",,"CMCLASCD","Maps directly to the SDTMIG variable listed in the SDTMIG Target column.","","","This field does not typically appear on the CRF. Sponsors will populate this through the coding process. This would generally be the class code used for analysis."
"CDASHIG v2.3","Interventions","CM",,"32","CMATC1","ATC Level 1 Description","Dictionary text description of the first level of hierarchy within the Anatomical Therapeutic Chemical (ATC) classification system; indicates the anatomical main group.",,,"Char","O",,"QVAL","This does not map directly to an SDTMIG variable. This information could be submitted in a SUPPCM dataset as the value of SUPPCM.QVAL where SUPPCM.QNAM=""CMATC1"" and SUPPCM.QLABEL=""ATC Level 1 Description"". Sponsors should include an Origin column in the SUPPQ dataset to indicate that the data was ""ASSIGNED"". Refer to the current SDTM and SDTMIG for instructions on placement of non-standard variables (NSVs) in SDTM domains.","","","This field does not typically appear on the CRF. This is populated through the sponsor's coding process."
"CDASHIG v2.3","Interventions","CM",,"33","CMATC1CD","ATC Level 1 Code","Dictionary code denoting the first level of hierarchy within the ATC classification system; indicates the anatomical main group.",,,"Num","O",,"QVAL","This does not map directly to an SDTMIG variable. This information could be submitted in a SUPPCM dataset as the value of SUPPCM.QVAL where SUPPCM.QNAM =""CMATC1CD"" and SUPPCM.QLABEL=""ATC Level 1 Code"". Sponsors should include an Origin column in the SUPPQ dataset to indicate that the data was ""ASSIGNED"".","","","This field does not typically appear on the CRF. This is populated through the sponsor's coding process."
"CDASHIG v2.3","Interventions","CM",,"34","CMATC2","ATC Level 2 Description","Dictionary text description for the second level of hierarchy within the ATC classification system; indicates the therapeutic main group.",,,"Char","O",,"QVAL","This does not map directly to an SDTMIG variable. This information could be submitted in a SUPPCM dataset as the value of SUPPCM.QVAL where SUPPCM.QNAM=""CMATC2"" and SUPPCM.QLABEL=""ATC Level 2 Description"". Sponsors should include an Origin column in the SUPPQ dataset to indicate that the data was ""ASSIGNED"". Refer to the current SDTM and SDTMIG for instructions on placement of NSVs in SDTM domains.","","","This field does not typically appear on the CRF. This is populated through the sponsor's coding process."
"CDASHIG v2.3","Interventions","CM",,"35","CMATC2CD","ATC Level 2 Code","Dictionary code denoting the second level of hierarchy within the ATC classification system; indicates the therapeutic main group.",,,"Num","O",,"QVAL","This does not map directly to an SDTMIG variable. This information could be submitted in a SUPPCM dataset as the value of SUPPCM.QVAL where SUPPCM.QNAM=""CMATC2CD"" and SUPPCM.QLABEL=""ATC Level 2 Code"". Sponsors should include an Origin column in the SUPPQ dataset to indicate that the data was ""ASSIGNED"".","","","This field does not typically appear on the CRF. This is populated through the sponsor's coding process."
"CDASHIG v2.3","Interventions","CM",,"36","CMATC3","ATC Level 3 Description","Dictionary text description of the third level of hierarchy within the ATC classification system; indicates the therapeutic/pharmacological subgroup.",,,"Char","O",,"QVAL","This does not map directly to an SDTMIG variable. This information could be submitted in a SUPPCM dataset as the value of SUPPCM.QVAL where SUPPCM.QNAM=""CMATC3"" and SUPPCM.QLABEL=""ATC Level 3 Description"". Sponsors should include an Origin column in the SUPPQ dataset to indicate that the data was ""ASSIGNED"". Refer to the current SDTM and SDTMIG for instructions on placement of NSVs in SDTM domains.","","","This field does not typically appear on the CRF. This is populated through the sponsor's coding process."
"CDASHIG v2.3","Interventions","CM",,"37","CMATC3CD","ATC Level 3 Code","Dictionary code denoting the third level of hierarchy within the ATC classification system; indicates the therapeutic/pharmacological subgroup.",,,"Num","O",,"QVAL","This does not map directly to an SDTMIG variable. This information could be submitted in a SUPPCM dataset as the value of SUPPCM.QVAL where SUPPCM.QNAM=""CMATC3CD"" and SUPPCM.QLABEL=""ATC Level 3 Code"". Sponsors should include an Origin column in the SUPPQ dataset to indicate that the data was ""ASSIGNED"".","","","This field does not typically appear on the CRF. This is populated through the sponsor's coding process."
"CDASHIG v2.3","Interventions","CM",,"38","CMATC4","ATC Level 4 Description","Dictionary text description of the fourth level of hierarchy within the ATC classification system; indicates the chemical/therapeutic/pharmacological subgroup.",,,"Char","O",,"QVAL","This does not map directly to an SDTMIG variable. This information could be submitted in a SUPPCM dataset as the value of SUPPCM.QVAL where SUPPCM.QNAM=""CMATC4"" and SUPPCM.QLABEL=""ATC Level 4 Description"". Sponsors should include an Origin column in the SUPPQ dataset to indicate that the data was ""ASSIGNED"". Refer to the current SDTM and SDTMIG for instructions on placement of NSVs in SDTM domains.","","","This field does not typically appear on the CRF. This is populated through the sponsor's coding process."
"CDASHIG v2.3","Interventions","CM",,"39","CMATC4CD","ATC Level 4 Code","Dictionary code denoting the fourth level of hierarchy within the ATC classification system; indicates the chemical/therapeutic/pharmacological subgroup.",,,"Num","O",,"QVAL","This does not map directly to an SDTMIG variable. This information could be submitted in a SUPPCM dataset as the value of SUPPCM.QVAL where SUPPCM.QNAM=""CMATC4CD"" and SUPPCM.QLABEL=""ATC Level 4 Code"". Sponsors should include an Origin column in the SUPPQ dataset to indicate that the data was ""ASSIGNED"".","","","This field does not typically appear on the CRF. This is populated through the sponsor's coding process."
"CDASHIG v2.3","Interventions","CM",,"40","CMATC5","ATC Level 5 Description","Dictionary text description of the fifth level of hierarchy within the ATC classification system; indicates the chemical substance.",,,"Char","O",,"QVAL","This does not map directly to an SDTMIG variable. This information could be submitted in a SUPPCM dataset as the value of SUPPCM.QVAL where SUPPCM.QNAM=""CMATC5"" and SUPPCM.QLABEL=""ATC Level 5 Description"". Sponsors should include an Origin column in the SUPPQ dataset to indicate that the data was ""ASSIGNED"". Refer to the current SDTM and SDTMIG for instructions on placement of NSVs in SDTM domains.","","","This field does not typically appear on the CRF. This is populated through the sponsor's coding process."
"CDASHIG v2.3","Interventions","CM",,"41","CMATC5CD","ATC Level 5 Code","Dictionary code denoting the fifth level of hierarchy within the ATC classification system; indicates the chemical substance.",,,"Num","O",,"QVAL","This does not map directly to an SDTMIG variable. This information could be submitted in a SUPPCM dataset as the value of SUPPCM.QVAL where SUPPCM.QNAM=""CMATC5CD"" and SUPPCM.QLABEL=""ATC Level 5 Code"". Sponsors should include an Origin column in the SUPPQ dataset to indicate that the data was ""ASSIGNED"".","","","This field does not typically appear on the CRF. This is populated through the sponsor's coding process."
"CDASHIG v2.3","Interventions","EC",,"1","STUDYID","Study Identifier","A unique identifier for a study.","What is the study identifier?","[Protocol/Study]","Char","HR",,"STUDYID","Maps directly to the SDTMIG variable listed in the SDTMIG Target column.","","","Although this field is not typically captured on a CRF, it should be displayed clearly on the CRF and/or in the EDC system. This field can be included in the database or populated during SDTM-based dataset creation before submission."
"CDASHIG v2.3","Interventions","EC",,"2","SITEID","Study Site Identifier","A unique identifier for a site within a study.","What is the site identifier?","Site (Identifier)","Char","HR",,"SITEID","Maps directly to the SDTMIG variable listed in the SDTMIG Target column.","","","Paper: This is typically preprinted in the header of each CRF page for single-site studies. For studies with multiple sites, this field may be left blank so that the number can be recorded by the site, or it may be preprinted on the CRFs that are shipped to each site. \n EDC: This should be prepopulated."
"CDASHIG v2.3","Interventions","EC",,"3","SUBJID","Subject Identifier for the Study","A unique subject identifier within a site and a study.","What [is/was] the (study) [subject/participant] identifier?","[Subject/Participant] (Identifier)","Char","HR","Record the identifier for the subject.","SUBJID","Maps directly to the SDTMIG variable listed in the SDTMIG Target column.","","","Paper: This is typically recorded in the header of each CRF page. \n EDC: The subject identifiers may be system generated. \n This CDASH variable is typically collected in all CDASH domains. However, this CDASH variable is populated only in the SDTMIG DM domain. For more information, refer to the SDTMIG."
"CDASHIG v2.3","Interventions","EC",,"4","EPOCH","Epoch","Name of the trial epoch with which this element of the arm is associated.","What is the trial epoch?","[Epoch](Period/Phase/Sponsor-defined phrase)","Char","R/C","[protocol specific]","EPOCH","Maps directly to the SDTMIG variable listed in the SDTMIG Target column.","C99079","EPOCH","If the same information is collected more than once in different periods/parts of a study (e.g., Disposition), EPOCH may be needed to differentiate them. Typically, the trial epoch will be preprinted on the CRF as the title of the page. See SDTMIG for further information regarding EPOCH."
"CDASHIG v2.3","Interventions","EC",,"5","ECYN","Any Study Treatment Taken","An indication of whether the subject took the study medication/ treatment.","Were any[study treatment/dose] taken?","Any Study Treatments","Char","O","Indicate if the subject took any study medications. If Yes, include the appropriate details where indicated.","","Does not map to an SDTMIG variable. The SDTM annotated CRF indicates that this field is NOT SUBMITTED.","C66742","NY","The intent/purpose of collecting this field is to help with data cleaning and monitoring. It provides verification that all other fields on the CRF were deliberately left blank. The ECYN is meant to indicate that the exposure as collected form should be completed or inserted into the case book. ECOCCUR would be used when the actual drug name is preprinted on the CRF. While these might be equivalent in a single-drug study, there are differences in how they would be used in most trials. Therefore, it does not map into the SDTM variable ECOCCUR; ECOCCUR indicates whether the subject was actually administered treatment/medication. If actual treatment data is available (ECYN =""Y""), ECOCCUR may be populated based on whether subject was actually administered treatment/medication."
"CDASHIG v2.3","Interventions","EC",,"6","ECCAT","Category of Treatment","A grouping of topic-variable values based on user-defined characteristics.","What is the category of the [study treatment/dose]?","[Study Treatment Category]; NULL","Char","O","Record the study treatment category, if not preprinted on the CRF.","ECCAT","Maps directly to the SDTMIG variable listed in the SDTMIG Target column.","","","Sponsor-defined controlled terminology. This would most commonly be either a heading or a preprinted category value on the CRF, and not a question to which the site would provide an answer. If a question is asked, the response would typically be a sponsor-defined codelist. If the form is laid out as a grid, then words such as ""Category"" can be included as the column heading."
"CDASHIG v2.3","Interventions","EC",,"7","ECSCAT","Subcategory of Treatment","A sub-division of the ECCAT values based on user-defined characteristics.","What is the subcategory of the [study treatment/dose]?","[Study Treatment Subcategory]; NULL","Char","O","Record the study treatment subcategory, if not preprinted on the CRF.","ECSCAT","Maps directly to the SDTMIG variable listed in the SDTMIG Target column.","","","Sponsor-defined controlled terminology. This would most commonly be preprinted on the CRF or screen and prepopulated in the data management system. This is not typically a question to which the site would provide an answer. ECSCAT can only be used if there is an ECCAT and it must be a subcategorization of ECCAT."
"CDASHIG v2.3","Interventions","EC",,"8","ECTRT","Treatment","Name of the intervention or treatment known to the subject and/or administrator.","What was the [study treatment/investigational product] name?","[Study Treatment/Investigational Product Name]","Char","R/C","Record the name of study treatment.","ECTRT","Maps directly to the SDTMIG variable listed in the SDTMIG Target column.","","","ECTRT is the name of the intervention or treatment known to the subject and/or administrator and it is the SDTM topic variable. It is a required variable in SDTM and must have a value in CDASH or a plan to populate it in the SDTM submission datasets (i.e., collected or populated from other sources). If, in a masked study, treatment is collected and known as tablet A to the subject or administrator, then ECTRT=""TABLET A"". If, in a masked study, the treatment is not known by a synonym and the data are to be exchanged between sponsors, partners, and/or regulatory agency(s), then assign ECTRT the value of ""MASKED""."
"CDASHIG v2.3","Interventions","EC",,"9","ECPRESP","Exposure as Collected Prespecified","An indication that a specific intervention or a group of interventions is prespecified on a CRF.",,,"Char","O",,"ECPRESP","Maps directly to the SDTMIG variable listed in the SDTMIG Target column.","C66742","NY","For prespecified interventions, a hidden field on a CRF defaulted to ""Y"", or added during the SDTM dataset creation. If a study collects both prespecified and free-text interventions, the value of ECPRESP should be ""Y"" for all prespecified interventions and null for interventions reported as free text."
"CDASHIG v2.3","Interventions","EC",,"10","ECOCCUR","Exposure as Collected Occurrence","An indication whether the study treatment was administered when information about the occurrence of a specific intervention was solicited.","Was [study treatment/dose] administered?; Has the subject taken [study treatment/dose]?","[Study Medication/Treatment]","Char","O","Indicate if the subject took study treatment. If Yes, include the appropriate details where indicated.","ECOCCUR","Maps directly to the SDTMIG variable listed in the SDTMIG Target column. Not applicable when ECMOOD is ""Scheduled"".","C66742","NY","ECOCCUR is used to indicate whether the subject was actually administered treatment/medication. ECOCCUR should not be used to indicate that the question was not asked or answered."
"CDASHIG v2.3","Interventions","EC",,"11","ECREASOC","Exposure Reason for Occur Value","An explanation for why a scheduled study treatment administration did or did not occur.","What was the reason that the [study treatment/dose] was (not) taken?","Reason (Not) Taken","Char","O","Indicate why the study treatment was or was not taken.","QVAL","This information could be submitted in a SUPPEC dataset as the value of SUPPEC.QVAL where SUPPEC.QNAM=""ECREASOC"" and SUPPEC.QLABEL =""Reason for Occur Value"". Refer to the current SDTM and SDTMIG for instructions on placement of non-standard variables (NSVs) in SDTM domains.","","","The reason the study treatment was or was not taken may be chosen from a sponsor-defined codelist (e.g., SUBJECT MISTAKE, SUBJECT REFUSED) or entered as free text. When --REASOC is used, --OCCUR must also be populated in the SDTM dataset with a value of ""Y"" or ""N""."
"CDASHIG v2.3","Interventions","EC",,"12","ECMOOD","Exposure as Collected Mood","Mode or condition of the record specifying whether the intervention (activity) is intended to happen or has happened.","Does this record describe scheduled [study treatment/dose] or performed [study treatment/dose]?","Scheduled/Performed","Char","O","Indicate if this record has happened or is intended to happen.","ECMOOD","Maps directly to the SDTMIG variable listed in the SDTMIG Target column. When implemented, ECMOOD must be populated for all records.","C125923","BRDGMOOD","""SCHEDULED"" is for collected subject-level intended dose records. ""PERFORMED"" is for collected subject-level actual dose records. ""Planned"" or ""Scheduled"" can be preprinted as the CRF name or section header, as applicable. If collecting both the scheduled and performed dosing in the same horizontal record, the sponsor may choose to append ""_SCHEDULED"" to the ECDOSE/ECDOSTXT variable name to delineate the scheduled dose from the performed dose. The performed dose would just be collected with ECDOSE/ECDOSTXT and ECDOSU."
"CDASHIG v2.3","Interventions","EC",,"13","ECREFID","Exposure as Collected Reference ID","An internal or external identifier (e.g., kit number, bottle label, vial identifier).","What is the[study treatment/dose] label identifier?","[Study Treatment] Label Identifier","Char","O","Record treatment label identifier.","ECREFID","Maps directly to the SDTMIG variable listed in the SDTMIG Target column.","","","This packaging identifier (e.g., kit number, bottle label, vial identifier) may be collected in different ways (e.g., affixing label onto CRF, scanning a bar code). For some study dosing regimens that require greater granularity for treatment identifiers, sponsors may need to use additional variables."
"CDASHIG v2.3","Interventions","EC",,"14","ECLOT","Lot Number","Lot number of the ECTRT product.","What was the lot number of the[study treatment/dose] used?","Lot Number","Char","R/C","Record the lot number that appears on the container holding the study treatment.","ECLOT","Maps directly to the SDTMIG variable listed in the SDTMIG Target column.","","","The lot number identifies the manufacturing batch of the study treatment. In open-label studies, the reference number on the study treatment container may represent an actual lot number and should be submitted using ECLOT. This variable may be populated during the process of creating the SDTM submission datasets. Do not collect other identification variables in this field."
"CDASHIG v2.3","Interventions","EC",,"15","ECFAST","Exposure as Collected Fasting Status","An indication that the subject has abstained from food/water for the specified amount of time.","Was the subject fasting?","Fasting","Char","O","Record whether the subject was fasting prior to the study treatment being taken.","ECFAST","Maps directly to the SDTMIG variable listed in the SDTMIG Target column. Would only be populated when ECMOOD=""PERFORMED"".","C66742","NY","Because some study treatments may have a food effect, it is important to know whether the dose was taken after the subject had fasted."
"CDASHIG v2.3","Interventions","EC",,"16","ECDOSFRM","Exposure as Collected Dose Form","The dosage form in which the ECTRT is physically presented.","What was the dose form of the [study treatment/dose]?","Dose Form","Char","R/C","Record the dose form (e.g., SOLUTION, TABLET, LOTION) or enter the appropriate code from the code list.","ECDOSFRM","Maps directly to the SDTMIG variable listed in the SDTMIG Target column.","C66726; C78426","FRM; EXDOSFRM","This must be collected if it cannot be determined from other sources or if there are multiple options for the same study treatment."
"CDASHIG v2.3","Interventions","EC",,"17","ECSTDAT","Exposure as Collected Start Date","The start date of study treatment, intended or actual, represented in an unambiguous date format (e.g., DD-MON-YYYY).","What was the ([intended/planned/actual]) ([study treatment/dose]) (start) date?","(Start) Date","Char","HR","Record the start date of the study treatment administration using this format (DD-MON-YYYY).","ECSTDTC","This does not map directly to an SDTMIG variable. For the SDTM submission dataset, concatenate all collected CDASH START DATE and TIME components and populate the SDTMIG variable ECSTDTC in ISO 8601 format.","","","Date when constant dosing interval of the study treatment started or single administration occurred. When collecting the date for an individual dose, the word ""start"" may be omitted from the Question Text and Prompt. When ECMOOD is collected and ECMOOD is ""SCHEDULED"", use ""intended"" in the question text and prompt. When ECMOOD is collected and ECMOOD is ""PERFORMED"", use ""actual"" in the question text and prompt."
"CDASHIG v2.3","Interventions","EC",,"18","ECSTTIM","Exposure as Collected Start Time","The start time of study treatment, represented in an unambiguous time format (e.g., hh:mm:ss).","What was the ([intended/planned/actual]) ([study treatment/dose]) (start) time?","(Start) Time","Char","R/C","Record the start time (as complete as possible) when administration of study treatment started.","ECSTDTC","This does not map directly to an SDTMIG variable. For the SDTM submission dataset, concatenate all collected CDASH START DATE and TIME components and populate the SDTMIG variable ECSTDTC in ISO 8601 format.","","","Recommend collecting the time a medication was started only when a protocol or data collection scenarios requires it. When collecting the time for an individual dose, the word ""start"" may be omitted from the question text and prompt."
"CDASHIG v2.3","Interventions","EC",,"19","ECENDAT","Exposure as Collected End Date","The end date of study treatment, represented in an unambiguous date format (e.g., DD-MON-YYYY).","What was the ([intended/planned/actual]) ([study treatment/dose]) (end) date?","(End) Date","Char","R/C","Record the end date of the study treatment administration using this format (DD-MON-YYYY).","ECENDTC","This does not map directly to an SDTMIG variable. For the SDTM submission dataset, concatenate all collected CDASH END DATE and TIME components and populate the SDTMIG variable ECENDTC in ISO 8601 format.","","","Date when study treatment period stopped.If start date and end date are not expected to be the same date, the collection of the end date is required. If the study design indicates that the start and end are on the same day, the collection of the end date is not required because it can be assigned to be equal to the start date."
"CDASHIG v2.3","Interventions","EC",,"20","ECENTIM","Exposure as Collected End Time","The end time of study treatment, represented in an unambiguous time format (e.g., hh:mm:ss).","What was the ([intended/planned/actual]) ([study treatment/dose]) (end) time?","(End) Time","Char","R/C","Record the time, (as complete as possible) when study treatment administration stopped (e.g., for infusions this is the time when the infusion ended).","ECENDTC","This does not map directly to an SDTMIG variable. For the SDTM submission dataset, concatenate all collected CDASH END DATE and TIME components and populate the SDTMIG variable ECENDTC in ISO 8601 format.","","","Recommend collecting the time a medication was ended when a protocol or data collection scenarios requires it. For infusions, the end time of the infusion is typically needed."
"CDASHIG v2.3","Interventions","EC",,"21","ECDSTXT","Exposure as Collected Dose Description","The dose of study medication taken (per administration).","What was the dose (per administration) (of [study treatment/dose])?","Dose","Char","R/C","Record the dose or amount of study treatment that was administered to/taken by the subject in the period recorded; from the start date/time to the end date/time inclusive.","ECDOSTXT; ECDOSE","This does not map directly to an SDTMIG variable. The data collected in this dose text-format field should be mapped to either ECDOSE if numeric or ECDOSTXT if text.","","","Dose or amount taken for single administration of study treatment or per constant dosing interval recorded. Dose must be collected if it cannot be determined via other methods (e.g., from diary data, drug accountability data, protocol). Care should be taken when mapping ECDSTXT. The data collected in this dose text-format field should be separated or mapped to either ECDOSE if numeric or ECDOSTXT if text."
"CDASHIG v2.3","Interventions","EC",,"22","ECDOSU","Exposure as Collected Dose Units","The unit for intended dose (per administration) for ECDOSE, ECDOSTOT, or ECDOSTXT.","What were the units for the dose?","Units","Char","R/C","Record the unit of dose or amount taken per period recorded (e.g., ng, mg, mg/kg).","ECDOSU","Maps directly to the SDTMIG variable listed in the SDTMIG Target column.","C71620; C78423","UNIT; EXDOSU","Unit of dose or amount taken per constant dosing interval recorded. Dose unit must be collected if it cannot be determined via other methods (e.g., from protocol, randomization data). The unit should be preprinted on the CRF or a field provided on the CRF to capture it. A CDASH Subset Controlled Terminology Codelist Name is available for dose and volume units. In blinded trials, the collected unit may be tablet, capsule, etc., since the actual unit is also blinded."
"CDASHIG v2.3","Interventions","EC",,"23","ECDOSFRQ","EC Dosing Frequency per Interval","The number of doses given/administered/taken during a specific interval.","What was the frequency of [study treatment/dose] dosing?","Frequency","Char","R/C","Record the frequency the study treatment was administered for a defined period of time (e.g., BID, QID, TID).","ECDOSFRQ","Maps directly to the SDTMIG variable listed in the SDTMIG Target column.","C71113; C78745","FREQ; EXDOSFRQ","This may be collected if it cannot be determined from other sources or if there are multiple options. When possible, the options for dose/amount frequency are preprinted on the CRF. When collected, the recommendation is to collect dosing information in separate fields (e.g., ECDOSE, ECDOSEU, ECDOSFRQ) for specific and consistent data collection and to enable programmatically using these data."
"CDASHIG v2.3","Interventions","EC",,"24","ECROUTE","EC Route of Administration","The route of administration of the study treatment.","What was the route of administration (of the [study treatment/dose])?","Route","Char","R/C","Record the route of administration (e.g., IV, ORAL, TRANSDERMAL) or enter the appropriate code from the code list.","ECROUTE","Maps directly to the SDTMIG variable listed in the SDTMIG Target column.","C66729; C78425","ROUTE; EXROUTE","This may be collected if it cannot be determined via other methods (e.g., from protocol) or if there are multiple options."
"CDASHIG v2.3","Interventions","EC",,"25","ECDOSRGM","Intended Dose Regimen","Text description of the intended schedule or regimen for the Intervention.","What was the intended dose regimen?","Intended Dose Regimen","Char","O","Record the regimen for the study medication.","ECDOSRGM","Maps directly to the SDTMIG variable listed in the SDTMIG Target column.","","","The regimen information (e.g., TWO WEEKS ON, TWO WEEKS OFF) may further clarify the dose administration and dose frequency. This may be preprinted or collected. The sponsor may wish to create a codelist to collect this data consistently."
"CDASHIG v2.3","Interventions","EC",,"26","ECDOSADJ","Dose Adjusted","An indication of whether the dose was adjusted.","Was the dose adjusted?","(Dose) Adjusted","Char","O","Select either Yes or No to indicate whether there was a change in dosing.","","When ECADJ is collected, does not map to an SDTMIG variable. The SDTM annotated CRF indicates that this field is NOT SUBMITTED. When ECADJ is not collected, the sponsor may submit this variable in SUPPEC.","C66742","NY","Typically, the intent/purpose of collecting this field is to help with data cleaning and monitoring, as it provides a definitive response regarding any dose changes. It provides verification that the associated field on the CRF (ECADJ) was deliberately left blank. However, the sponsor may collect whether the dose was adjusted, without collecting the reason for the change. When using ECMOOD, this field should not be used."
"CDASHIG v2.3","Interventions","EC",,"27","ECADJ","Reason for Dose Adjustment","Description of or explanation for why a dose of the study treatment was adjusted.","What was the reason the dose was adjusted?","Reason Adjusted","Char","O","If there was a change in dosing, record the reason for change.","ECADJ","Maps directly to the SDTMIG variable listed in the SDTMIG Target column.","","","Captures the reason the dose was changed or modified. The reason may be chosen from a sponsor-defined list (e.g., adverse event, insufficient response) or entered as free text. May be used for variations from protocol-specified doses, or changes from expected doses. Used only when an adjustment is represented in EX dataset."
"CDASHIG v2.3","Interventions","EC",,"28","ECITRPYN","EC Exposure Interrupted","An indication of whether the exposure was interrupted.","Was the [(study) treatment/dose] interrupted?","[(Study) Treatment / Dose] Interrupted","Char","O","Record if there was an interruption in the study treatment or dosing.","","Does not map to an SDTMIG variable. The SDTM annotated CRF indicates that this field is NOT SUBMITTED..","C66742","NY","The intent/purpose of collecting this field is to help with data cleaning and monitoring when the actual duration of the exposure is collected using the CDASH field ECCINTD. In some situations, if the actual duration of the interruption is not collected or not derived, this information could be submitted in a SUPPEC.QVAL dataset where SUPPEC.QNAM = ""ECITRPYN"" and SUPPEC.QLABEL = ""Exposure Interrupted""."
"CDASHIG v2.3","Interventions","EC",,"29","ECCINTD","EC Interruption Duration","The collected duration of the treatment interruption.","What was the duration of the treatment interruption?","(Interruption) Duration","Char","O","Record the duration of treatment interruption.","QVAL","This does not map directly to an SDTMIG variable. This information could be submitted in a SUPPEC dataset as the value of SUPPEC.QVAL where SUPPEC.QNAM=""ECITRPD"" and SUPPEC.QLABEL= ""Interruption Duration"". Concatenate the collected treatment interruption duration and the duration unit components and create ECITRPD using ISO 8601 Period format. Refer to the current SDTM and SDTMIG for instructions on placement of NSVs in SDTM domains.","","","This field is used to collect the duration of treatment interruption. In some situations, the duration of the interruption may not be collected but calculated from the treatment start and end times recorded elsewhere in the CRF."
"CDASHIG v2.3","Interventions","EC",,"30","ECCINTDU","EC Interruption Duration Units","The unit for the collected duration of treatment interruption.","What was the interruption duration unit?","(Interruption Duration) Unit","Char","O","Record the unit (e.g., MINUTES, HOURS, DAYS) for the duration of treatment interruption.","QVAL","This does not map directly to an SDTMIG variable. This information could be submitted in a SUPPEC dataset as the value of SUPPEC.QVAL where SUPPEC.QNAM = ""ECITRPD"" and SUPPEC.QLABEL= ""Interruption Duration"". Concatenate the collected treatment interruption duration and the duration unit components and create ECITRPD using ISO 8601 Period format. Refer to the current SDTM and SDTMIG for instructions on placement of NSVs in SDTM domains.","C71620; C78427","UNIT; EXINTPU","The unit should be collected as a qualifier to the number for duration."
"CDASHIG v2.3","Interventions","EC",,"31","ECLOC","EC Location of Dose Administration","A description of the anatomical location of administration.","What was the anatomical location of the ([study treatment/dose]) administration?","Anatomical Location","Char","O","Record the body location where the study treatment was administered (e.g., SHOULDER, HIP, ARM).","ECLOC","Maps directly to the SDTMIG variable listed in the SDTMIG Target column.","C74456","LOC","Collected or preprinted when the sponsor needs to identify the specific anatomical location where the study treatment was administered. LAT, DIR, PORTOT are used to further describe the anatomical location."
"CDASHIG v2.3","Interventions","EC",,"32","ECLAT","Exposure as Collected Laterality","Qualifier for anatomical location, further detailing side of the body for the study treatment administration.","What was the side of the anatomical location of the ([study treatment/dose]) administration?","Side","Char","O","Record the side of the body location where the study treatment was administered (e.g., Left, Right).","ECLAT","Maps directly to the SDTMIG variable listed in the SDTMIG Target column.","C99073","LAT","Further details the laterality of the location where the study treatment was administered. This may be preprinted or collected. Sponsors may collect the data using a subset list of controlled terminology on the CRF."
"CDASHIG v2.3","Interventions","EC",,"33","ECDIR","Exposure as Collected Directionality","Qualifier further detailing the position of the anatomical location relative to the center of the body, organ, or specimen.","What was the directionality of the anatomical location of the ([study treatment/dose]) administration?","Directionality","Char","O","Record the directionality of the body location where the study treatment was administered (e.g., Anterior, Lower, Proximal, Upper).","ECDIR","Maps directly to the SDTMIG variable listed in the SDTMIG Target column.","C99074","DIR","May be preprinted or collected when the sponsor needs to identify the directionality of the anatomical location. Sponsors may collect the data using a subset list of controlled terminology on the CRF."
"CDASHIG v2.3","Interventions","EC",,"34","ECVAMT","EC Vehicle Amount","The amount of the prepared product (treatment + vehicle) administered or given.","What was the total amount (Drug + Vehicle) (of [study treatment/dose]) administered?","Total Amount (Drug + Vehicle)","Num","O","Record the total amount (treatment +vehicle) that was administered/given to the subject.","","Maps directly to the SDTMIG variable listed in the SDTMIG Target column. The SDTM variable ECTRTV may also be populated during the process of creating the SDTM submission datasets.","","","Administration amount that was given to the subject. \n Note: Should not be the diluent amount alone. The ECTRTV field may be collected if it cannot be determined from other sources."
"CDASHIG v2.3","Interventions","EC",,"35","ECVAMTU","EC Vehicle Amount Units","The unit of measurement for the prepared product (treatment + vehicle).","What was the unit for the amount (of [study treatment/dose]) administered?","Unit","Char","O","Record the unit of total amount (treatment +vehicle) administered/given to the subject (e.g., mL).","","Maps directly to the SDTMIG variable listed in the SDTMIG Target column.","C71620","UNIT","Unit of the administration amount"
"CDASHIG v2.3","Interventions","EC",,"36","ECFLRT","Exposure as Collected Infusion Rate","The flow rate for the total amount of drug + vehicle administered to the subject.","What was the [study treatment/dose] infusion rate?","Infusion Rate","Num","O","Record the Rate of Infusion (e.g., if rate is 10 mL/min. Record 10 as the infusion rate).","QVAL","This does not map directly to an SDTMIG variable. This information could be submitted in a SUPPEC dataset as the value of SUPPEC.QVAL where SUPPEC.QNAM=""ECFLRT"" and SUPPEC.QLABEL= ""Infusion Rate"". Refer to the current SDTM and SDTMIG for instructions on placement of NSVs in SDTM domains.","","","The infusion rate can be used to derive dose."
"CDASHIG v2.3","Interventions","EC",,"37","ECFLRTU","Exposure as Collected Infusion Rate Unit","The unit of measure for the flow rate for the total amount of drug + vehicle administered to the subject.","What was the unit for the ([study treatment/dose]) infusion rate?","Infusion Rate Unit","Char","O","Record the unit for the infusion rate (e.g., mL/min).","QVAL","This does not map directly to an SDTMIG variable. This information could be submitted in a SUPPEC dataset as the value of SUPPEC.QVAL where SUPPEC.QNAM=""ECFLRTU"" and SUPPEC.QLABEL= ""Infusion Rate Unit"". Refer to the current SDTM and SDTMIG for instructions on placement of NSVs in SDTM domains.","C71620; C78429","UNIT; EXFLRTU","Unit of the infusion rate"
"CDASHIG v2.3","Interventions","EC",,"38","ECTPT","EC Planned Time Point Name","A text description of the planned time point when measurements should be taken, as defined in the protocol.","What was the planned time point for [study treatment/dose]?","[Planned Time Point Name]","Char","R/C","Record the planned time point of study treatment administration if not preprinted on the CRF.","ECTPT","Maps directly to the SDTMIG variable listed in the SDTMIG Target column. See the SDTMIG for additional information on representing time points. The SDTMIG time-point anchors ECTPTREF (text description) and ECRFTDTC (date/time) may be needed, as well as SDTMIG variables ECTPTNUM, ECELTM.","","","Planned time points are needed to differentiate multiple sequential assessments. It is recommended that time points should be preprinted on the CRF rather than collected in a field that requires the site to enter text. If the form is laid out as a grid, then words such as ""Planned Time Point"" can be included as the column heading."
"CDASHIG v2.3","Interventions","EC",,"39","ECTRTCMP","Completed Treatment","An indication of whether the subject completed the intended regimen.","Did the subject complete the full course of [study treatment/dose]?","Completed Treatment","Char","O","Select either Yes or No to indicate whether subject has completed the full course of treatment.","QVAL","This does not map directly to an SDTMIG variable. This information could be submitted in a SUPPEC dataset as the value of SUPPEC.QVAL where SUPPEC.QNAM = ""ECTRTCMP"" and SUPPEC.QLABEL =""Completed Treatment"". Refer to the current SDTM and SDTMIG for instructions on placement of NSVs in SDTM domains.","C66742","NY","Depending on how the study treatment details are collected on the CRF/eCRF, it may be possible to derive those data if the regimen data are collected."
"CDASHIG v2.3","Interventions","EX",,"1","STUDYID","Study Identifier","A unique identifier for a study.","What is the study identifier?","[Protocol/Study]","Char","HR",,"STUDYID","Maps directly to the SDTMIG variable listed in the SDTMIG Target column.","","","Although this field is not typically captured on a CRF, it should be displayed clearly on the CRF and/or in the EDC system. This field can be included into the database or populated during SDTM-based dataset creation before submission."
"CDASHIG v2.3","Interventions","EX",,"2","SITEID","Study Site Identifier","A unique identifier for a site within a study.","What is the site identifier?","Site (Identifier)","Char","HR",,"SITEID","Maps directly to the SDTMIG variable listed in the SDTMIG Target column.","","","Paper: This is typically preprinted in the header of each CRF page for single-site studies. For studies with multiple sites, this field may be left blank so that the number can be recorded by the site, or it may be preprinted on the CRFs that are shipped to each site. \n EDC: This should be prepopulated."
"CDASHIG v2.3","Interventions","EX",,"3","SUBJID","Subject Identifier for the Study","A unique subject identifier within a site and a study.","What [is/was] the (study) [subject/participant] identifier?","[Subject/Participant] (Identifier)","Char","HR","Record the identifier for the subject.","SUBJID","Maps directly to the SDTMIG variable listed in the SDTMIG Target column.","","","Paper: This is typically recorded in the header of each CRF page. EDC: The subject identifiers may be system-generated. This CDASH variable is typically collected in all CDASH domains. However, this CDASH variable is populated only in the SDTMIG DM domain. For more information, refer to the SDTMIG."
"CDASHIG v2.3","Interventions","EX",,"4","EPOCH","Epoch","Name of the trial epoch with which this element of the arm is associated.","What is the trial epoch?","[Epoch](Period/Phase/Sponsor-defined phrase)","Char","R/C","[protocol specific]","EPOCH","Maps directly to the SDTMIG variable listed in the SDTMIG Target column.","C99079","EPOCH","If the same information is collected more than once in different periods/parts of a study (e.g., Disposition), EPOCH may be needed to differentiate them. Typically, the trial epoch will be preprinted on the CRF as the title of the page. See the SDTMIG for further information regarding EPOCH."
"CDASHIG v2.3","Interventions","EX",,"5","EXYN","Any Study Treatment Taken","An indication of whether the subject took study medication/treatment.","Were any[study treatment/dose] taken?","Any Study Treatments","Char","O","Indicate if the subject took any study medications. If Yes, include the appropriate details where indicated.","","Does not map to an SDTMIG variable. The SDTM annotated CRF indicates that this field is NOT SUBMITTED.","C66742","NY","The intent/purpose of collecting this field is to help with data cleaning and monitoring. It provides verification that all other fields on the CRF were deliberately left blank. The EXYN variable is a cleaning or EDC convention meant to indicate that the exposure form should be completed or inserted into the case book."
"CDASHIG v2.3","Interventions","EX",,"6","EXCAT","Category of Treatment","A grouping of topic-variable values based on user-defined characteristics.","What is the category of the [study treatment/dose] ?","[Study Treatment Category]; NULL","Char","O","Record the study treatment category, if not preprinted on the CRF.","EXCAT","Maps directly to the SDTMIG variable listed in the SDTMIG Target column.","","","Sponsor-defined controlled terminology. This would most commonly be either a heading or a preprinted category value on the CRF, and not a question to which the site would provide an answer. If a question is asked, the response would typically be a sponsor-defined codelist. If the form is laid out as a grid, then words such as ""Category"" can be included as the column header."
"CDASHIG v2.3","Interventions","EX",,"7","EXSCAT","Subcategory of Treatment","A sub-division of the EXCAT values based on user-defined characteristics.","What is the subcategory of the [study treatment/dose] ?","[Study Treatment Subcategory]; NULL","Char","O","Record the study treatment subcategory, if not preprinted on the CRF.","EXSCAT","Maps directly to the SDTMIG variable listed in the SDTMIG Target column.","","","Sponsor-defined controlled terminology. This would most commonly be preprinted on the CRF or screen and prepopulated in the data management system. This is not typically a question to which the site would provide an answer. EXSCAT can only be used if there is an EXCAT and it must be a subcategorization of EXCAT."
"CDASHIG v2.3","Interventions","EX",,"8","EXTRT","Name of Treatment","Name of the study treatment or intervention given per single administration or during the constant dosing interval for the observation.","What was the [study treatment/investigational product] name?","[Study Treatment/Investigational Product Name]","Char","R/C","Record the name of study treatment.","EXTRT","Maps directly to the SDTMIG variable listed in the SDTMIG Target column.","","","EXTRT captures the name of the investigational treatment. This is typically collected for open label studies and populated for blinded studies during the SDTM-based dataset creation. Because EXTRT is the SDTMIG topic variable, it is a required variable in SDTM and must have a value in CDASH or a plan to populate it in the SDTM submission datasets (i.e., collected or populated from other sources)."
"CDASHIG v2.3","Interventions","EX",,"9","EXREFID","Exposure Reference ID","An internal or external identifier (e.g., kit number, bottle label, vial identifier).","What is the [study treatment/dose] label identifier?","Treatment Label Identifier","Char","R/C","Record treatment label identifier.","EXREFID","Maps directly to the SDTMIG variable listed in the SDTMIG Target column.","","","This packaging identifier (e.g., kit number, bottle label, vial identifier) may be collected in different ways (e.g., affixing label onto CRF, scanning a bar code). For some study dosing regimens, greater granularity for treatment identifiers may be needed."
"CDASHIG v2.3","Interventions","EX",,"10","EXLOT","Lot Number","Lot number of the EXTRT product.","What was the lot number of the[study treatment/dose] used?","Lot Number","Char","R/C","Record the lot number that appears on the container holding the study treatment.","EXLOT","Maps directly to the SDTMIG variable listed in the SDTMIG Target column.","","","The lot number identifies the manufacturing batch of the study treatment. In open-label studies, the reference number on the study treatment container may represent an actual lot number and is submitted using EXLOT. This variable may be populated during the process of creating the SDTM submission datasets. Do not collect other identification variables in this field."
"CDASHIG v2.3","Interventions","EX",,"11","EXFAST","Exposure Fasting Status","An indication that the subject has abstained from food/water for the specified amount of time.","Was the subject fasting?","Fasting","Char","O","Record whether the subject was fasting prior to the study treatment being taken.","EXFAST","Maps directly to the SDTMIG variable listed in the SDTMIG Target column.","C66742","NY","Because some study treatments may have a food effect, it is important to know whether the dose was taken after the subject had fasted."
"CDASHIG v2.3","Interventions","EX",,"12","EXDOSFRM","Exposure Dose Form","The dosage form in which the EXTRT is physically presented.","What was the dose form of the [study treatment/dose] ?","Dose Form","Char","R/C","Record the dose form (e.g., SOLUTION, TABLET, LOTION) or enter the appropriate code from the code list.","EXDOSFRM","Maps directly to the SDTMIG variable listed in the SDTMIG Target column.","C66726; C78426","FRM; EXDOSFRM","This must be collected if it cannot be determined from other sources or if there are multiple options."
"CDASHIG v2.3","Interventions","EX",,"13","EXSTDAT","Exposure Start Date","The start date of study treatment, represented in an unambiguous date format (e.g., DD-MON-YYYY).","What was the ([intended/planned/actual]) ([study treatment/dose]) (start) date?","(Start) Date","Char","HR","Record the start date of the study treatment administration using this format (DD-MON-YYYY).","EXSTDTC","This does not map directly to an SDTMIG variable. For the SDTM submission dataset, concatenate all collected CDASH START DATE and TIME components and populate the SDTMIG variable EXSTDTC in ISO 8601 format.","","","Date when the constant dosing interval of the study treatment started or single administration occurred. When collecting the date for an individual dose, the word ""start"" may be omitted from the question text and prompt."
"CDASHIG v2.3","Interventions","EX",,"14","EXSTTIM","Exposure Start Time","The start time of the study treatment, represented in an unambiguous time format (e.g., hh:mm:ss).","What was the ([intended/planned/actual]) ([study treatment/dose]) (start) time?","(Start) Time","Char","R/C","Record the start time (as complete as possible) when administration of study treatment started.","EXSTDTC","This does not map directly to an SDTMIG variable. For the SDTM submission dataset, concatenate all collected CDASH START DATE and TIME components and populate the SDTMIG variable EXSTDTC in ISO 8601 format.","","","Recommend collecting the time a medication was started only when a protocol or data collection scenario requires it."
"CDASHIG v2.3","Interventions","EX",,"15","EXENDAT","Exposure End Date","The end date of study treatment, represented in an unambiguous date format (e.g., DD-MON-YYYY).","What was the ([intended/planned/actual]) ([study treatment/dose]) (end) date?","(End) Date","Char","R/C","Record the end date or last date of administration of study treatment using this format (DD-MON-YYYY).","EXENDTC","This does not map directly to an SDTMIG variable. For the SDTM submission dataset, concatenate all collected CDASH END DATE and TIME components and populate the SDTMIG variable EXENDTC in ISO 8601 format.","","","If start date and end date are not expected to be on the same date, the end date is required. If the study design indicates that the start and end date are on the same day, the end date is not required because it can be assigned to be equal to the start date."
"CDASHIG v2.3","Interventions","EX",,"16","EXENTIM","Exposure End Time","The end time of treatment, represented in an unambiguous time format (e.g., hh:mm:ss).","What was the ([intended/planned/actual]) ([study treatment/dose]) (end) time?","(End) Time","Char","R/C","Record the time, (as complete as possible) when study treatment administration stopped (e.g., for infusions this is the time when the infusion ended).","EXENDTC","This does not map directly to an SDTMIG variable. For the SDTM submission dataset, concatenate all collected CDASH END DATE and TIME components and populate the SDTMIG variable EXENDTC in ISO 8601 format.","","","Recommend collecting the time a medication was ended when a protocol or data collection scenario requires it. For infusions, the end time of the infusion is typically needed."
"CDASHIG v2.3","Interventions","EX",,"17","EXDSTXT","Exposure Dose Description","Dose (per administration).","What was the dose [per administration] (of [study treatment/dose]) ?","Dose","Char","R/C","Record the dose or amount of study treatment that was administered to/taken by the subject in the period recorded; from the start date/time to the end date/time inclusive.","EXDOSTXT; EXDOSE","This does not map directly to an SDTMIG variable. Numeric values map to EXDOSE in SDTM. Non-numeric values (e.g., 200-400) map to EXDOSTXT in SDTM.","","","Dose or amount taken for single administration of study treatment or per constant dosing interval recorded. Dose must be collected if it cannot be determined via other methods (e.g., from diary data, drug accountability data, protocol). The data collected in this dose text-format field should be mapped to either SDTMIG variable EXDOSE (if numeric) or EXDOSTXT (if text)."
"CDASHIG v2.3","Interventions","EX",,"18","EXDOSU","Exposure Dose Unit","The unit for intended dose (per administration) for EXDOSE, EXDOSTOT, or EXDOSTXT.","What was the unit for the dose?","Unit","Char","R/C","Record the unit of dose or amount taken per period recorded (e.g., ng, mg, mg/kg).","EXDOSU","Maps directly to the SDTMIG variable listed in the SDTMIG Target column.","C71620","UNIT","Unit of dose or amount taken per constant dosing interval recorded. Dose unit must be collected if it cannot be determined via other methods (e.g., from protocol, randomization data). The unit should be preprinted on the CRF or a field provided on the CRF to capture it. A CDASH Subset Controlled Terminology Codelist Name is available for general dose and volume units."
"CDASHIG v2.3","Interventions","EX",,"19","EXDOSFRQ","Exposure Dosing Frequency per Interval","The number of doses given/administered/taken during a specific interval.","What was the frequency of[study treatment/dose] dosing?","Frequency","Char","R/C","Record the frequency the study treatment was administered for a defined period of time.","EXDOSFRQ","Maps directly to the SDTMIG variable listed in the SDTMIG Target column.","C71113","FREQ","This may be collected if it cannot be determined from other sources or if there are multiple options. When possible, the options for dose/amount frequency are preprinted on the CRF. When collected, the recommendation is to collect dosing information in separate fields (e.g., ECDOSE, ECDOSEU, ECDOSFRQ) for specific and consistent data collection and to enable programmatically using these data."
"CDASHIG v2.3","Interventions","EX",,"20","EXROUTE","Exposure Route of Administration","The route of administration of the study treatment.","What was the route of administration (of the [study treatment/dose] )?","Route","Char","R/C","Record the route of administration (e.g., IV, ORAL, TRANSDERMAL) or enter the appropriate code from the code list.","EXROUTE","Maps directly to the SDTMIG variable listed in the SDTMIG Target column.","C66729; C78425","ROUTE; EXROUTE","This may be collected if it cannot be determined via other methods (e.g., from protocol) or if there are multiple options."
"CDASHIG v2.3","Interventions","EX",,"21","EXDOSRGM","Intended Dose Regimen","The text description of the intended schedule or regimen for the Intervention.","What was the intended dose regimen (of the [study treatment/dose] )?","Intended Dose Regimen","Char","O","Record the regimen for the study medication.","EXDOSRGM","Maps directly to the SDTMIG variable listed in the SDTMIG Target column.","","","The regimen information may further clarify the dose administration and dose frequency (e.g., TWO WEEKS ON, TWO WEEKS OFF). This may be preprinted or collected. The sponsor may wish to create a codelist to collect this data consistently."
"CDASHIG v2.3","Interventions","EX",,"22","EXDOSADJ","Dose Adjusted","An indication of whether the dose was adjusted.","Was the dose adjusted?","(Dose) Adjusted","Char","O","Select either Yes or No to indicate whether there was a change in dosing.","","When EXADJ is collected, does not map to an SDTMIG variable. The SDTM annotated CRF indicates that this field is NOT SUBMITTED. When EXADJ is not collected, the sponsor may submit this variable as a SUPPQ.","C66742","NY","Typically, the intent/purpose of collecting this field is to help with data cleaning and monitoring, as it provides a definitive response regarding any dose changes. It provides verification that the associate field on the CRF (EXADJ) was deliberately left blank. However, the sponsor may collect whether the dose was adjusted, without collecting the reason for the change."
"CDASHIG v2.3","Interventions","EX",,"23","EXADJ","Reason for Dose Adjustment","Description of or explanation for why a dose of the study treatment was adjusted.","What was the reason the dose was adjusted (from planned)?","Reason Adjusted","Char","O","If there was a change in dosing, record the reason for change.","EXADJ","Maps directly to the SDTMIG variable listed in the SDTMIG Target column.","","","Captures the reason the dose was changed or modified. The reason may be chosen from a sponsor-defined list (e.g., adverse event, insufficient response) or entered as free text. May be used for variations from protocol-specified doses or changes from expected doses."
"CDASHIG v2.3","Interventions","EX",,"24","EXITRPYN","EX Exposure Interrupted","An indication of whether the exposure was interrupted.","Was the [ (study) treatment/dose] interrupted?","[(Study) Treatment / Dose] Interrupted","Char","O","Record if there was an interruption in the study treatment or dosing.","","Does not map to an SDTMIG variable. The SDTM annotated CRF indicates that this field is NOT SUBMITTED.","C66742","NY","The intent/purpose of collecting this field is to help with data cleaning and monitoring when the actual duration of the exposure is collected using the CDASH field EXCINTD. In some situations, if the actual duration of the interruption is not collected, or not derived, this information could be submitted in a SUPPEX.QVAL dataset where SUPPEX.QNAM = ""EXITRPYN"" and SUPPEX.QLABEL = ""Exposure Interrupted""."
"CDASHIG v2.3","Interventions","EX",,"25","EXCINTD","Exposure Interruption Duration","The collected duration of the treatment interruption.","If the dose was interrupted, how long was the interruption?","(Interruption) Duration","Char","O","Record the duration of treatment interruption.","QVAL","This does not map directly to an SDTMIG variable. This information could be submitted in a SUPPEX dataset as the value of SUPPEX.QVAL where SUPPEX.QNAM=""EXITRPD"" and SUPPEX.QLABEL= ""Interruption Duration"". Concatenate the collected treatment interruption duration and the duration unit components and create EXITRPD using ISO 8601 Period format. Refer to the current SDTM and SDTMIG for instructions on placement of NSVs in SDTM domains.","","","In some situations, the duration of the interruption may be calculated from the administration start and end times recorded elsewhere in the CRF."
"CDASHIG v2.3","Interventions","EX",,"26","EXCINTDU","Exposure Interruption Duration Units","The unit for the collected duration of treatment interruption.","If the dose was interrupted, what were the units for the interruption duration?","(Interruption Duration) Unit","Char","O","Record the unit (e.g., MINUTES, HOURS, DAYS) for the duration of treatment interruption.","QVAL","This does not map directly to an SDTMIG variable. This information could be submitted in a SUPPEX dataset as the value of SUPPEX.QVAL where SUPPEX.QNAM = ""EXITRPD"" and SUPPEX.QLABEL= ""Interruption Duration"". Concatenate the collected treatment interruption duration and the duration unit components and create EXITRPDusing ISO 8601 Period format. Refer to the current SDTM and SDTMIG for instructions on placement of NSVs in SDTM domains.","C71620; C78427","UNIT; EXINTPU","The unit should be collected and converted into ISO 8601 period format."
"CDASHIG v2.3","Interventions","EX",,"27","EXLOC","Exposure Location of Dose Administration","A description of the anatomical location of administration.","What was the anatomical location of the ([study treatment/dose] ) administration?","Anatomical Location","Char","O","Record the body location where the study treatment was administered (e.g., SHOULDER, HIP, ARM).","EXLOC","Maps directly to the SDTMIG variable listed in the SDTMIG Target column.","C74456","LOC","Collected or preprinted when the sponsor needs to identify the specific anatomical location where the study treatment was administered. LAT, DIR, PORTOT are used to further describe the anatomical location."
"CDASHIG v2.3","Interventions","EX",,"28","EXVAMT","Exposure Vehicle Amount","The amount of the prepared product (treatment + vehicle) administered or given.","What was the total amount (Drug + Vehicle)(of [study treatment/dose] ) administered?","Total Amount","Num","O","Record the total amount (treatment +vehicle) that was administered/given to the subject.","","Maps directly to the SDTMIG variable listed in the SDTMIG Target column. The SDTM variable ECTRTV may also be populated during the process of creating the SDTM submission datasets.","","","Administration amount that was given to the subject. Note: should not be the diluent amount alone. The ECTRTV field may be collected if it cannot be determined from other sources."
"CDASHIG v2.3","Interventions","EX",,"29","EXVAMTU","Exposure Vehicle Amount Units","The unit of measure for the prepared product (treatment + vehicle).","What was the unit for the amount (of [study treatment/dose] ) administered?","Unit","Char","O","Record the unit of total amount (treatment +vehicle) administered/given to the subject (e.g., mL).","","Maps directly to the SDTMIG variable listed in the SDTMIG Target column.","C71620; C78428","UNIT; EXVOLTU","Unit of the administration amount. A CDASH Subset Controlled Terminology Codelist Name is available for dose and volume units."
"CDASHIG v2.3","Interventions","EX",,"30","EXFLRT","Exposure Infusion Rate","The flow rate for the total amount of drug + vehicle administered to the subject.","What was the [study treatment/dose] infusion rate?","Infusion Rate","Num","O","Record the Rate of Infusion (e.g., if rate is 10 mL/min. Record 10 as the infusion rate).","QVAL","This does not map directly to an SDTMIG variable. This information could be submitted in a SUPPEX dataset as the value of SUPPEX.QVAL where SUPPEX.QNAM = ""EXFLRT"" and SUPPEX.QLABEL= ""Infusion Rate"". Refer to the current SDTM and SDTMIG for instructions on placement of NSVs in SDTM domains.","","","The infusion rate can be used to derive dose."
"CDASHIG v2.3","Interventions","EX",,"31","EXFLRTU","Exposure Infusion Rate Unit","The unit of measure for the flow rate for the total amount of drug + vehicle administered to the subject.","What were the units for the [study treatment/dose] infusion rate?","(Infusion Rate) Unit","Char","O","Record the unit for the infusion rate (e.g., mL/min).","QVAL","This does not map directly to an SDTMIG variable. This information could be submitted in a SUPPEX dataset as the value of SUPPEX.QVAL where SUPPEX.QNAM =""EXFLRTU"" and SUPPEX.QLABEL=""Infusion Rate Unit"". Refer to the current SDTM and SDTMIG for instructions on placement of NSVs in SDTM domains.","C71620; C78429","UNIT; EXFLRTU","Unit of the infusion rate"
"CDASHIG v2.3","Interventions","EX",,"32","EXTPT","Exposure Planned Time Point Name","A text description of the planned time point when measurements should be taken, as defined in the protocol.","What was the planned time point for [study treatment/dose] ?","[Planned Time Point Name]","Char","R/C","Record the planned time point of study treatment administration if not preprinted on the CRF.","EXTPT","Maps directly to the SDTMIG variable listed in the SDTMIG Target column. See the SDTMIG for additional information on representing time points. The SDTMIG time-point anchors EXTPTREF (text description) and EXRFTDTC (date/time) may be needed, as well as SDTMIG variables EXTPTNUM, EXELTM.","","","Planned time points are needed to differentiate multiple sequential assessments. It is recommended that time points should be preprinted on the CRF rather than collected in a field that requires the site to enter text. If the form is laid out as a grid, then words such as ""Planned Time Point"" can be included in the column heading."
"CDASHIG v2.3","Interventions","EX",,"33","EXTRTCMP","Completed Treatment","Indication of whether the subject completed the intended regimen.","Did the subject complete the full course of [study treatment/dose] ?","Completed Treatment","Char","O","Select either Yes or No to indicate whether subject has completed the full course of treatment.","QVAL","This does not map directly to an SDTMIG variable. This information could be submitted in a SUPPEX dataset as the value of SUPPEX.QVAL where SUPPEX.QNAM = ""EXTRTCMP"" and SUPPEX.QLABEL="" Completed Treatment"". Refer to the current SDTM and SDTMIG for instructions on placement of NSVs in SDTM domains.","C66742","NY","Depending on how the study treatment details are collected via the CRF/eCRF, it may be possible to derive those data if the regimen data are collected."
"CDASHIG v2.3","Interventions","EX",,"34","EXLAT","Exposure Laterality","Qualifier for anatomical location, further detailing side of the body for the study treatment administration.","What was the side of the anatomical location of the ([study treatment/dose] ) administration?","Side","Char","O","Record the side of the body location where the study treatment was administered (e.g., Left, Right).","EXLAT","Maps directly to the SDTMIG variable listed in the SDTMIG Target column.","C99073","LAT","Further details the laterality of the location where the study treatment was administered. This may be preprinted or collected. Sponsors may collect the data using a subset list of controlled terminology on the CRF."
"CDASHIG v2.3","Interventions","EX",,"35","EXDIR","Exposure Directionality","Qualifier further detailing the position of the anatomical location, relative to the center of the body, organ, or specimen.","What was the directionality of the anatomical location of the ([study treatment/dose] ) administration?","Directionality","Char","O","Record the directionality of the body location where the study treatment was administered (e.g., Anterior, Lower, Proximal, Upper).","EXDIR","Maps directly to the SDTMIG variable listed in the SDTMIG Target column.","C99074","DIR","May be preprinted or collected when the sponsor needs to identify the directionality of the anatomical location. Sponsors may collect the data using a subset list of controlled terminology on the CRF."
"CDASHIG v2.3","Interventions","ML",,"1","STUDYID","Study Identifier","A unique identifier for a study.","What is the study identifier?","[Protocol/Study]","Char","HR",,"STUDYID","Maps directly to the SDTMIG variable listed in the SDTMIG Target column.","","","Although this field is not typically captured on a CRF, it should be displayed clearly on the CRF and/or in the EDC system. This field can be included into the database or populated during SDTM-based dataset creation before submission."
"CDASHIG v2.3","Interventions","ML",,"2","SITEID","Study Site Identifier","A unique identifier for a site within a study.","What is the site identifier?","Site (Identifier)","Char","HR",,"SITEID","Maps directly to the SDTMIG variable listed in the SDTMIG Target column.","","","Paper: This is typically preprinted in the header of each CRF page for single-site studies. For studies with multiple sites, this field may be left blank so that the number can be recorded by the site, or it may be preprinted on CRFs that are shipped to each site. \n EDC: This should be prepopulated."
"CDASHIG v2.3","Interventions","ML",,"3","SUBJID","Subject Identifier for the Study","A unique subject identifier within a site and a study.","What [is/was] the (study) [subject/participant] identifier?","[Subject/Participant] (Identifier)","Char","HR","Record the identifier for the subject.","SUBJID","Maps directly to the SDTMIG variable listed in the SDTMIG Target column.","","","Paper: This is typically recorded in the header of each CRF page. EDC: The subject identifiers may be system generated. This CDASH variable is typically collected in all CDASH domains. However, this CDASH variable is populated only in the SDTMIG DM domain. For more information, refer to the SDTMIG."
"CDASHIG v2.3","Interventions","ML",,"4","MLCAT","Category for Meal","A grouping of topic-variable values based on user-defined characteristics.","What is the category for the [meal/food product]?","[Meal/Food Product] Category]; NULL","Char","O","Record the [meal/food product] category, if not preprinted on the CRF.","MLCAT","Maps directly to the SDTMIG variable listed in the SDTMIG Target column.","","","Sponsor-defined controlled terminology. This would most commonly be either a heading, or a preprinted category value on the CRF and not a question to which the site would provide an answer. If a question is asked, the response would typically be a sponsor-defined codelist. If the form is laid out as a grid, then words such as ""Category"" can be included as the column header."
"CDASHIG v2.3","Interventions","ML",,"5","MLSCAT","Subcategory for Meal","A sub-division of the MLCAT values based on user-defined characteristics.","What is the subcategory for the [meal/food product]?","[Meal/Food Product] Subcategory]; NULL","Char","O","Record the [meal/food product] subcategory, if not preprinted on the CRF.","MLSCAT","Maps directly to the SDTMIG variable listed in the SDTMIG Target column.","","","Sponsor-defined controlled terminology. This would most commonly be preprinted on the CRF or screen and prepopulated in the data management system. This is not typically a question to which the site would provide an answer."
"CDASHIG v2.3","Interventions","ML",,"6","MLYN","Any Meal Taken","An indication of whether any meal or food product were consumed or administered. \n \n \n","[Were/Was] any [meal/food product] [taken/consumed/administered] ?","Any [meal/food product] [taken/consumed/administered] ?","Char","O","Indicate if the subject consumed any [meal/food product]. If Yes, include the appropriate details where indicated on the CRF.","","Does not map to an SDTMIG variable. The SDTM annotated CRF indicates that this field is NOT SUBMITTED.","C66742","NY","The intent/purpose of collecting this field is to help with data cleaning and monitoring. It provides verification that all other fields on the CRF were deliberately left blank."
"CDASHIG v2.3","Interventions","ML",,"7","MLSPID","ML Sponsor-Defined Identifier","A sponsor-defined identifier. In CDASH, this is typically used for preprinted or auto-generated numbers on the CRF, or any other type of identifier that does not already have a defined CDASH identifier field.","[Sponsor-defined question]","[Sponsor defined]","Char","O","If collected on the CRF, the sponsor may insert instructions to ensure each record has a unique identifier.","MLSPID","Maps directly to the SDTMIG variable listed in the SDTMIG Target column. May be used to create RELREC to link this record with a record in another domain.","","","Because SPID is a sponsor-defined identifier, conformance to Question Text or Item Prompt is not applicable. Typically used as an identifier in a data query to communicate clearly to the site the specific record in question or to reconcile meal/food product records with AEs and/or MH. May be used to record preprinted number (e.g. line number, record number) on the CRF. This field may be populated by the sponsor's data collection system."
"CDASHIG v2.3","Interventions","ML",,"8","MLTRT","Name of Meal or Food Product","The reported name of the food, beverage or combination of food or beverage consumed at one time. \n","What was the [meal/food product/sponsor-defined] (name)?","[Meal]","Char","HR","Record only 1 [meal/food product name] per line.","MLTRT","Maps directly to the SDTMIG variable listed in the SDTMIG Target column.","","","Sponsors may use the name of a food or the name of the combination of foods (e.g., breakfast, low-fat meal, breakfast bar, water). \n"
"CDASHIG v2.3","Interventions","ML",,"9","MLPRESP","ML Prespecified","An indication that a specific intervention or a group of interventions is prespecified on a CRF.",,,"Char","O",,"MLPRESP","Maps directly to the SDTMIG variable listed in the SDTMIG Target column.","C66742","NY","For prespecified interventions, a hidden field on a CRF defaulted to ""Y"", or added during the SDTM dataset creation. If a study collects both prespecified and free-text interventions, the value of MLPRESP should be ""Y"" for all prespecified interventions and null for interventions reported as free text."
"CDASHIG v2.3","Interventions","ML",,"10","MLOCCUR","ML Occurrence","An indication of whether the prespecified meal or food product were taken/consumed/administered when information about the occurrence of the specific intervention was solicited.","Did the subject take [MLTRT]?; Has the subject [taken/consumed/administered] [MLTRT]?","[MLTRT]","Char","O","Indicate if [MLTRT] was [taken/consumed/administered] by checking Yes or No.","MLOCCUR","Maps directly to the SDTMIG variable listed in the SDTMIG Target column. If the question was not asked or answered, populate the SDTMIG variable MLSTAT with ""NOT DONE"".","C66742","NY","MLOCCUR is used to report the occurrence of a prespecified meal/ food product. MLOCCUR is not used for spontaneously reported free-text meals/food products. The site should be able to indicate that the response was not asked or answered."
"CDASHIG v2.3","Interventions","ML",,"11","MLREASOC","Reason for Occur Value","An explanation for why the scheduled intervention did or did not occur.","What was the reason that the [MLTRT] was (not) consumed/taken/done/administered]?","Reason for Occur Value","Char","O","Reason [MLTRT] (Not) [Performed/Taken/Done/Administered]","QVAL","This information could be submitted in a SUPPML dataset as the value of SUPPML.QVAL where SUPPML.QNAM = ""MLREASOC"" and SUPPML.QLABEL =""Reason for Occur Value"". Refer to the current SDTM and SDTMIG for instructions on placement of NSVs in SDTM domains.","","","The reason MLTRT occurred may be chosen from a sponsor-defined codelist or entered as free text. When --REASOC is used, --OCCUR must also be populated in the SDTM dataset. This variable should not be used to represent that the item was not answered, not done, not completed, or unknown. The variables MLSTAT /MLREASND should be used instead."
"CDASHIG v2.3","Interventions","ML",,"12","MLREAS","ML Reason","The reason that the meal/food product was used.","What was the reason for the [meal/food product] [[taken/consumed/administered]?","Reason","Char","O","Record the reason the meal/product was taken.","QVAL","This information could be submitted in a SUPPML dataset as the value of SUPPML.QVAL where SUPPML.QNAM = ""MLREAS"" and SUPPML.QLABEL =""Reason for the Intervention"". Refer to the current SDTM and SDTMIG for instructions on placement of NSVs in SDTM domains.","","","This is the condition, disease, symptom, or disorder for which the meal or food product is taken, consumed, or administered This additional information is collected on the CRF when sponsors want to capture the reason(s) why a subject took a meal/product."
"CDASHIG v2.3","Interventions","ML",,"13","MLCENO","Related Clinical Event ID","Identifier for the clinical event event that is the indication for this meal or food product.","What was the identifier for the clinical event s) for which the (meal/food product] was [taken/consumed/administered]","Clinical Event Identifier","Char","O","Record the identifier of the Clinical Event for which this [meal/food product] was taken/consumed/administered.","","This does not map directly to an SDTMIG variable. For the SDTM submission datasets, may be used to create RELREC to link this record with a record in the CE domain.","","","The intent is to establish a link between the meal/food product and a clinical event that was reported. MLCENO can be used to identify a relationship between records in ML dataset and records in the CE dataset. See the SDTMIG for information on RELREC."
"CDASHIG v2.3","Interventions","ML",,"14","MLDOSE","Dose","The quantity/amount of the meal or food product (e.g., --TRT) taken/consumed/administered represented as a numeric value.","What was the quantity/amount (of the) ([meal/food product]) [taken/consumed/administered]?","[Quantity/Amount] (given at one time)","Num","O","Record the quantity/amount of the meal/food product (e.g., --TRT ) given at one time represented as a numeric value.","MLDOSE","Maps directly to the SDTMIG variable listed in the SDTMIG Target column.","","","Used when the quantity taken/administered/consumed has only numeric entries. If non-numeric entries are possible, use the CDASH field MLDSTXT."
"CDASHIG v2.3","Interventions","ML",,"15","MLDSTXT","Dose Description","The quantity/amount of the meal or food product (e.g., --TRT) taken/consumed/administered represented as a numeric or text value.","What was quantity/amount (of the) ([meal/food product]) [taken/consumed/administered]?","Dose","Char","O","Record the quantity/amount of the [meal/food product] taken/consumed/administered at one time.","MLDOSTXT; MLDOSE","This does not map directly to an SDTMIG variable. Numeric values map to MLDOSE in SDTM. Non-numeric values (e.g., 200-400) map to MLDOSTXT in SDTM.","","","Defining this data collection field as a text field allows for flexibility in capturing entries as numbers, text, or ranges. The data collected in this text-format field should be separated or mapped to either SDTMIG MLDOSE (if numeric) or MLDOSTXT (if text)."
"CDASHIG v2.3","Interventions","ML",,"16","MLDOSU","Dose Units","The unit associated with the quantity/amount of the the meal /food product taken/consumed/administered.","What is the unit for the quantity/amount of the [meal/food product]?","(Quantity/Amount) Unit","Char","R/C","Record the unit for the quantity/amount of the [meal/food product] taken/consumed/administered.","MLDOSU","Maps directly to the SDTMIG variable listed in the SDTMIG Target column.","C71620; C78417","UNIT; CMDOSU","When sponsors collect data for amount /quantity of meal/food product taken (i.e., Dose, Total Daily Dose), the unit must be collected as well (if applicable)."
"CDASHIG v2.3","Interventions","ML",,"17","MLSTDAT","Meal Start Date","The start date when the meal or food product was first taken/consumed/administered, represented in an unambiguous date format (e.g., DD-MON-YYYY).","What was the (start) date the [meal/food product] was first [taken/consumed/administered]?","(Start) Date","Char","R/C","Record the date the [meal/food product] was first taken/consumed/administered using this format (DD-MON-YYYY).","MLSTDTC","This does not map directly to an SDTMIG variable. For the SDTM submission dataset, concatenate all collected CDASH START DATE and TIME components and populate the SDTMIG variable MLSTDTC in ISO 8601 format.","","","The assumption is that sponsors should either have a start date or will indicate that the meal or food product was started before, during, or after the study period. The preferred method is to collect a complete start date. Partial dates (e.g., providing year only) for meal/food product started a considerable amount of time prior to the start of study are acceptable."
"CDASHIG v2.3","Interventions","ML",,"18","MLSTTIM","Meal Start Time","The time the meal or food product was started, represented in an unambiguous time format (e.g., hh:mm:ss).","What was the [meal/food product] start time?","Start Time","Char","R/C","Record the time (as complete as possible) that the [meal/food product] was started.","MLSTDTC","This does not map directly to an SDTMIG variable. For the SDTM submission dataset, concatenate all collected CDASH START DATE and TIME components and populate the SDTMIG variable MLSTDTC in ISO 8601 format.","","","Recommend collecting the time a meal/food product was started only when a protocol or data collection scenarios supports it. Typically, a start time is not collected unless the subject is under the direct care of the site at the time a meal/food product or the subject records the start time in a diary. See Section 3.7, Mapping Relative Times from Collection to Submissions, and the SDTMIG for more information."
"CDASHIG v2.3","Interventions","ML",,"19","MLENDAT","Meal End Date","The date that the subject ended/stopped taking/consuming/administering the meal or food product product represented in an unambiguous date format (e.g., DD-MON-YYYY).","What was the [meal/food product] end date?","End Date","Char","R/C","Record the date the [meal/food product] was stopped using this format (DD-MON-YYYY). If the subject has not stopped taking the [meal/product] leave this field blank.","MLENDTC","This does not map directly to an SDTMIG variable. For the SDTM submission dataset, concatenate all collected CDASH END DATE and TIME components and populate the SDTMIG variable MLENDTC in ISO 8601 format.","","","The assumption is that sponsors should either have an end date or will indicate that the meal or food product was ongoing at the time of collection or at the end of the study. However, in cases where the end date can be determined from dates collected elsewhere in the CRF it is not necessary to include an end date in the CRF."
"CDASHIG v2.3","Interventions","ML",,"20","MLENTIM","Meal End Time","The time when the subject ended/stopped taking the meal or food product represented in an unambiguous time format (e.g., hh:mm:ss).","What was the [meal/food product] end time?","End Time","Char","R/C","Record the time (as complete as possible) that the [meal/food product] was stopped.","MLENDTC","This does not map directly to an SDTMIG variable. For the SDTM submission dataset, concatenate all collected CDASH END DATE and TIME components and populate the SDTMIG variable MLENDTC in ISO 8601 format.","","","Recommend collecting the time a meal/food product was ended only when a protocol or data collection scenarios require it or the subject records the start time in a diary. Typically, a end time is not collected unless the subject is under the direct care of the site at the time a meal/food product or the subject records the end time in a diary. See Section 3.7, Mapping Relative Times from Collection to Submissions, and the SDTMIG for more information."
"CDASHIG v2.3","Interventions","ML",,"21","MLDECOD","Standardized Meal Name","The dictionary or sponsor-defined standardized text description of the topic variable (MLTRT) or the modified topic variable (MLMODIFY), if applicable.",,,"Char","O",,"","Maps directly to the SDTMIG variable listed in the SDTMIG Target column.","","","This field does not typically appear on the CRF. Sponsors will populate this through the coding process. Equivalent to a standardized name in a published or sponsor-defined dictionaries."
"CDASHIG v2.3","Interventions","ML",,"22","MLMODIFY","Modified Reported Term","If the value for MLTRT is modified for coding purposes, then the modified text is placed here.",,,"Char","O",,"","Maps directly to the SDTMIG variable listed in the SDTMIG Target column.","","","This is not a data collection field that will appear on the CRF itself. Sponsors will populate this through the coding process."
"CDASHIG v2.3","Interventions","PR",,"1","STUDYID","Study Identifier","A unique identifier for a study.","What is the study identifier?","[Protocol/Study]","Char","HR",,"STUDYID","Maps directly to the SDTMIG variable listed in the SDTMIG Target column.","","","Although this field is not typically captured on a CRF, it should be displayed clearly on the CRF and/or the EDC system. This field can be included into the database or created during SDTM-based dataset creation before submission."
"CDASHIG v2.3","Interventions","PR",,"2","SITEID","Study Site Identifier","A unique identifier for a site within a study.","What is the site identifier?","Site (Identifier)","Char","HR",,"SITEID","Maps directly to the SDTMIG variable listed in the SDTMIG Target column.","","","Paper: This is typically preprinted in the header of each CRF page for single-site studies. For studies with multiple sites, this field may be left blank so that the number can be recorded by the site, or it may be preprinted on the CRFs that are shipped to each site. \n EDC: This should be prepopulated."
"CDASHIG v2.3","Interventions","PR",,"3","SUBJID","Subject Identifier for the Study","A unique subject identifier within a site and a study.","What [is/was] the (study) [subject/participant] identifier?","[Subject/Participant] (Identifier)","Char","HR","Record the identifier for the subject.","SUBJID","Maps directly to the SDTMIG variable listed in the SDTMIG Target column.","","","Paper: This is typically recorded in the header of each CRF page. EDC: The subject identifiers may be system generated. This CDASH variable is typically collected in all CDASH domains. However, this CDASH variable is populated only in the SDTMIG DM domain. For more information, refer to the SDTMIG."
"CDASHIG v2.3","Interventions","PR",,"4","PRYN","Any Procedures Performed","An indication of whether the subject had any procedures performed.","Were any surgical, therapeutic, or diagnostic procedures performed?","Any Procedures","Char","O","Indicate if the subject had any surgical, therapeutic or diagnostic procedures. If ""Yes"", include the appropriate details where indicated on the CRF.","","Does not map to an SDTMIG variable. The SDTM annotated CRF indicates that this field is NOT SUBMITTED.","C66742","NY","The intent/purpose of collecting this field is to help with data cleaning and monitoring. It provides verification that all other fields on the CRF were deliberately left blank."
"CDASHIG v2.3","Interventions","PR",,"5","PRCAT","Procedure Category","A grouping of topic-variable values based on user-defined characteristics.","What was the category of the procedure?","[Procedure Category]; NULL","Char","O","Record the procedure category, if not preprinted on the CRF.","PRCAT","Maps directly to the SDTMIG variable listed in the SDTMIG Target column.","","","Sponsor-defined controlled terminology. This would most commonly be either a heading or a preprinted category value on the CRF, and not a question to which the site would provide an answer. If a question is asked, the response would typically be a sponsor-defined codelist. If the form is laid out as a grid, then words such as ""Category"" can be included as the column header."
"CDASHIG v2.3","Interventions","PR",,"6","PRSCAT","Procedure Subcategory","A sub-division of the PRCAT values based on user-defined characteristics.","What was the subcategory of the procedure?","[Procedure Subcategory]; NULL","Char","O","Record the procedure subcategory, if not preprinted on the CRF.","PRSCAT","Maps directly to the SDTMIG variable listed in the SDTMIG Target column.","","","Sponsor-defined controlled terminology. This would most commonly be preprinted on the CRF or screen and prepopulated in the data management system. This is not typically a question to which the site would provide an answer. PRSCAT can only be used if there is a PRCAT and it must be a subcategorization of PRCAT."
"CDASHIG v2.3","Interventions","PR",,"7","PRSPID","Procedure Sponsor-Defined Identifier","A sponsor-defined identifier. In CDASH, This is typically used for preprinted or auto-generated numbers on the CRF, or any other type of identifier that does not already have a defined CDASH identifier field.","[Sponsor-defined question]","[Sponsor defined]","Char","O","If collected on the CRF, sponsor may insert instructions to ensure each record has a unique identifier.","PRSPID","Maps directly to the SDTMIG variable listed in the SDTMIG Target column. May be used to create RELREC to link this record with a record in another domain.","","","Because SPID is a sponsor-defined identifier, conformance to Question Text or Item Prompt is not applicable. Typically used as an identifier in a data query to communicate clearly to the site the specific record in question or to reconcile procedure records with medical history and/or with AEs. May be used to record preprinted number (e.g., line number, record number) on the CRF. This field may be populated by the sponsor's data collection system."
"CDASHIG v2.3","Interventions","PR",,"8","PRTRT","Reported Name of Procedure","The verbatim surgical, therapeutic, or diagnostic procedure's name.","What was the procedure name?","[Procedure Name]; (Specify) Other","Char","HR","Record only one procedure per line.","PRTRT","Maps directly to the SDTMIG variable listed in the SDTMIG Target column.","","","In most cases, the verbatim procedure names or therapy will be coded to a standard dictionary (e.g., MedDRA, SNOMED) after the data have been collected on the CRF."
"CDASHIG v2.3","Interventions","PR",,"9","PRDECOD","Standardized Procedure Name","The dictionary or sponsor-defined standardized text description of PRTRT, or the modified topic variable (PRMODIFY), if applicable.",,"[Standardized Procedure Name]","Char","O",,"PRDECOD","Maps directly to the SDTMIG variable listed in the SDTMIG Target column.","C101858","PROCEDUR","This is typically not a data collection field that will appear on the CRF. If the sponsor chooses to code the procedure, the sponsor will populate this through the coding process. If PRPRESP is used, and the information about a specific standardized procedure name is being solicited, the data from PRTRT may map directly to the SDTMIG PRDECOD variable."
"CDASHIG v2.3","Interventions","PR",,"10","PRMODIFY","Modified Procedure Name","If the value for PRTRT is modified for coding purposes, then the modified text is placed here.",,,"Char","O",,"","Maps directly to the SDTMIG variable listed in the SDTMIG Target column.","","","This is not a data collection field that will appear on the CRF. If the sponsor chooses to code the procedure, the sponsor will populate this through the coding process."
"CDASHIG v2.3","Interventions","PR",,"11","PRPRESP","Procedure Prespecified","An indication that a specific intervention or a group of interventions is prespecified on a CRF.",,,"Char","O",,"PRPRESP","Maps directly to the SDTMIG variable listed in the SDTMIG Target column.","C66742","NY","For prespecified interventions, a hidden field on a CRF defaulted to ""Y"", or added during the SDTM dataset creation. If a study collects both prespecified and free-text interventions, the value of PRPRESP should be ""Y"" for all prespecified interventions and null for interventions reported as free text."
"CDASHIG v2.3","Interventions","PR",,"12","PROCCUR","Procedure Occurrence","An indication of whether a prespecified procedure (PRTRT) happened when information about the occurrence of a specific intervention is solicited.","Was [PRDECOD/PRTRT] performed?; Has the subject had [PRDECOD/PRTRT]?","[PRDECOD/PRTRT] Performed","Char","O","Indicate if [specific procedure] was performed by checking Yes or No.","PROCCUR","Maps directly to the SDTMIG variable listed in the SDTMIG Target column. If the response was not asked or answered, populate the SDTMIG variable PRSTAT with ""NOT DONE"".","C66742","NY","PROCCUR is used to report the occurrence of a prespecified procedure or a group of procedures. PROCCUR is not used for spontaneously free text-reported procedures. The site should be able to indicate that the response was not asked or answered."
"CDASHIG v2.3","Interventions","PR",,"13","PRREASOC","Procedure Reason for Occur Value","An explanation for why a scheduled procedure did or did not occur.","What was the reason that the procedure did or not occur?","Reason for Occur Value","Char","O","Indicate why the procedure did or did not occur.","","Maps directly to the SDTMIG variable listed in the SDTMIG Target column.","","","The reason the scheduled procedure was or was not performed may be chosen from a sponsor-defined codelist (e.g., SUBJECT REFUSED) or entered as free text. When --REASOC is used, --OCCUR must also be populated in the SDTM dataset with a value of ""Y"" or ""N""."
"CDASHIG v2.3","Interventions","PR",,"14","PRREASND","Procedure Reason Not Done","An explanation for why the data are not available.","What was the reason not done?","Reason not done","Char","O","Provide the reason why the procedure was not done.","","Maps directly to the SDTMIG variable listed in the SDTMIG Target column.","","","The reason the data are not available may be chosen from a sponsor-defined list (e.g., broken equipment, subject refused) or entered as free text. When PRREASND is used, the SDTMIG variable PRSTAT should also be populated in the SDTM-based dataset. The value ""NOT DONE"" here indicates that the subject was not questioned/data was not collected. It does not mean that the subject did not have the procedure."
"CDASHIG v2.3","Interventions","PR",,"15","PRPRIOR","Prior Procedure","Indication the procedure occurred prior to [PRSTTPT] or prior to the date in DM.RFSTDTC.","Was the procedure performed prior to [PRSTTPT]?; Was the procedure performed prior to study start?","Prior to [PRSTTPT]; Prior to study","Char","O","Check if the procedure was started before the specified point in time.","PRSTRTPT","This does not map directly to an SDTMIG variable. May be used to populate a value into an SDTM relative timing variable such as PRSTRF or PRSTRTPT. When populating PRSTRF, or PRSTRTPT, if the value of the CDASH field PRPRIOR is ""Y"" a value from the CDISC CT (STENRF) may be used. When PRPRIOR refers to the Study Reference Period (defined in DM.RFSTDTC to DM.RFENDTC) the SDTM variable PRSTRF should be populated. When PRPRIOR is compared to another time point, the SDTM variables PRSTRTPT and PRSTTPT should be used. Note: PRSTRTPT must refer to the time-point anchor described in PRSTTPT.","C66742","NY","See Section 3.7, Mapping Relative Times from Collection to Submissions , and and the SDTMIG for more information about mapping relative times. ."
"CDASHIG v2.3","Interventions","PR",,"16","PRSTDAT","Procedure Start Date","The date or start date of when the procedure started or was performed, represented in an unambiguous date format (e.g., DD-MON-YYYY).","What was the procedure (start) date ?","(Start) Date","Char","R/C","Record the date the procedure was started or performed using this format (DD-MON-YYYY). Procedures performed during the study are expected to have a complete start date. Prior procedures that are exclusionary should have both a start and end date.","PRSTDTC","This does not map directly to an SDTMIG variable. For the SDTM submission dataset, concatenate all collected CDASH START DATE and TIME components and populate the SDTMIG variable PRSTDTC in ISO 8601 format.","","","The preferred method is to collect a complete Start Date. Partial dates (e.g., providing year only) for procedures started a considerable amount of time prior to the start of study are acceptable."
"CDASHIG v2.3","Interventions","PR",,"17","PRONGO","Ongoing Procedure","Indication the procedure is ongoing when no end date is provided.","Was the procedure ongoing (as of the [study-specific timepoint or period])?","Ongoing (as of the [study-specific timepoint or period])","Char","O","Indicate if the procedure has not ended at the time of data collection and the end date should be left blank.","PRENRTPT","This does not map directly to an SDTM variable. May be used to populate a value into an SDTMIG relative timing variable such as PRENRF or PRENRTPT. When populating PRENRF, if the value of PRONGO is ""Y"", the value of ""DURING"", ""AFTER"" or ""DURING/AFTER"" may be used. When populating PRENRTPT, if the value of PRONGO is ""Y"", the value of ""ONGOING"" may be used. When PRONGO refers to the Study Reference Period (defined in DM.RFSTDTC to DM.RFENDTC) the SDTM variable PRENRF should be populated. When PRONGO is used in conjunction with another time point, the SDTM variables PRENRTPT and PRENTPT should be used. Note: PRENRTPT must refer to a time point anchor described in PRENTPT.","C66742","NY","Completed to indicate that the procedure has not stopped at the time point defined by the study. The purpose of collecting this field is to help with data cleaning and monitoring; this field provides further confirmation that the End Date was deliberately left blank. See Section 3.7, Mapping Relative Times from Collection to Submissions , and and SDTMIG for more information about mapping relative times."
"CDASHIG v2.3","Interventions","PR",,"18","PRENDAT","Procedure End Date","The end date of the procedure, represented in an unambiguous date format (e.g., DD-MON-YYYY).","What was the procedure (end) date?","(End) Date","Char","R/C","Record the end date of the procedure using this format (DD-MON-YYYY). If the procedure has not ended, leave this field blank and populate PRONGO as ""Y"".","PRENDTC","This does not map directly to an SDTMIG variable. For the SDTM submission dataset, concatenate all collected CDASH END DATE and TIME components and populate the SDTM variable PRENDTC in ISO 8601 format.","","","The assumption is that sponsors should either have an end date or will indicate that the procedure was ongoing at the time of collection or at the end of the study. However, in cases where the end date can be determined from dates collected elsewhere in the CRF it is not necessary to include an end date in the CRF. For example, if the procedure is started and stopped within the same day, the end date will be the same as the start date."
"CDASHIG v2.3","Interventions","PR",,"19","PRINDC","Procedure Indication","The condition, disease, symptom, or disorder that the procedure was used to address or investigate (e.g., why the therapy was taken or administered, why the procedure was performed).","For what indication was the [PRTRT] performed?","Indication","Char","O","Record the reason the procedure was performed based on clinical investigator's evaluation. If performed to treat a condition, and a diagnosis was made, the indication should be the diagnosis. If performed to treat a condition, and no diagnosis was made, the indication should be the signs and symptoms. If taken as prophylaxis, report as ""Prophylaxis for"" and include a description of the condition(s).","PRINDC","Maps directly to the SDTMIG variable listed in the SDTMIG Target column.","","","This additional information is collected on the CRF when the sponsor wants to capture the reason(s) why a procedure was performed. This information can then be used as deemed appropriate for coding, analysis (e.g., in the classification of procedures), for reconciling the procedures performed on a subject with their provided medical history, and/or AEs/SAEs as part of the data clean-up and monitoring process."
"CDASHIG v2.3","Interventions","PR",,"20","PRAENO","Related Adverse Event ID","Identifier for the adverse event that is the indication for this procedure.","What was the identifier for the adverse event(s) for which the procedure was performed?","Related Adverse Event Identifier","Char","O","Record the identifier of the adverse event for which this procedure was performed.","","This does not map directly to an SDTMIG variable. For the SDTM submission datasets, may be used to create RELREC to link this record with a record in the AE domain.","","","The intent is to establish a link between the adverse event and the procedure performed for the adverse event. PRAENO can be used to identify a relationship between records in the PR dataset and records in the AE dataset. See the SDTMIG for information on RELREC."
"CDASHIG v2.3","Interventions","PR",,"21","PRMHNO","Related Medical History Event ID","Identifier for the medical history event that is the indication for this procedure.","What was the identifier for the medical history event(s) for which the procedure was performed?","Related Medical History Event Identifier","Char","O","Record the identifier of the medical history event for which this procedure was performed.","","This does not map directly to an SDTMIG variable. For the SDTM submission datasets, may be used to create RELREC to link this record with a record in the MH domain.","","","The intent is to establish a link between the medical history condition and the procedure undergone for the medical history condition. PRMHNO can be used to identify a relationship between records in the PR dataset and records in the MH dataset. See the SDTMIG for information on RELREC."
"CDASHIG v2.3","Interventions","PR",,"22","PRDSTXT","Procedure Dose Description","The dose/amount administered during the procedure.","What was the [dose/amount] of [PRTRT] (per administration/for the procedure)?","[Dose/Amount]","Char","O","Record the [dose/amount] of [PRTRT] per administered.","PRDOSE; PRDOSTXT","This does not map directly to an SDTMIG variable. Numeric values map to PRDOSE in SDTM. Non-numeric values (e.g., 200-400) map to PRDOSTXT in SDTM.","","","Defining this data collection field as a dose text field allows for flexibility in capturing dose entries as numbers, text or ranges. The data collected in this dose text-format field should be separated or mapped to either SDTMIG PRDOSE if numeric or PRDOSTXT if text."
"CDASHIG v2.3","Interventions","PR",,"23","PRDOSU","Procedure Dose Unit","The unit for intended dose/amount for PRDOSE, PRDOSTOT, or PRDOSTXT.","What was the unit?","Unit","Char","O","Record the unit for the amount of [PRTRT] performed or administered.","PRDOSU","Maps directly to the SDTMIG variable listed in the SDTMIG Target column.","C71620","UNIT","When sponsors collect data for amount of PRTRT performed or administered, the unit should be collected as well (as applicable)."
"CDASHIG v2.3","Interventions","PR",,"24","PRDOSFRQ","Procedure Frequency per Interval","The number/amount of the procedure that was given/administered/taken during a specific interval.","What was the frequency of [PRTRT]?","Frequency","Char","O","Record how often the procedure was performed.","PRDOSFRQ","Maps directly to the SDTMIG variable listed in the SDTMIG Target column.","C71113","FREQ","This may be collected if it cannot be determined from other sources or if there are multiple options. Usually expressed as the number of procedures given per a specific interval."
"CDASHIG v2.3","Interventions","PR",,"25","PRROUTE","Procedure Route of Administration","The route of administration of the procedure.","What was the route of administration of the procedure?","Route","Char","O","Provide the route of administration for the procedure.","PRROUTE","Maps directly to the SDTMIG variable listed in the SDTMIG Target column.","C66729","ROUTE","This additional information may be important to collect on the CRF when the sponsor would want to capture a procedure's route of administration for comparative analysis purposes."
"CDASHIG v2.3","Interventions","PR",,"26","PRLOC","Location of Procedure","A description of the anatomical location of an procedure (e.g., location of a biopsy).","What was the anatomical location where the procedure was performed?","Anatomical Location","Char","O","Record the body location where the procedure was performed.","PRLOC","Maps directly to the SDTMIG variable listed in the SDTMIG Target column.","C74456","LOC","Collected when the sponsor needs to identify the specific anatomical location (e.g., Liver for the Biopsy). LAT, DIR, PORTOT are used to further describe the anatomical location."
"CDASHIG v2.3","Interventions","PR",,"27","PRLAT","Procedure Laterality","Qualifier for anatomical location, further detailing side of the body for the procedure administration.","What was the side of the anatomical location of the administration?","Side","Char","O","Record the side of the anatomical location where the procedure was administered.","PRLAT","Maps directly to the SDTMIG variable listed in the SDTMIG Target column.","C99073","LAT","Further details the laterality of the location where the procedure was administered/taken. This may be preprinted or collected. Sponsors may collect the data using a subset list of controlled terminology on the CRF."
"CDASHIG v2.3","Interventions","PR",,"28","PRDIR","Procedure Directionality","Qualifier further detailing the position of the anatomical location, relative to the center of the body, organ, or specimen.","What was the directionality of the anatomical location of the procedure?","Directionality","Char","O","Record the direction of the anatomical location where the procedure was administered.","PRDIR","Maps directly to the SDTMIG variable listed in the SDTMIG Target column.","C99074","DIR","May be preprinted or collected when the sponsor needs to identify the directionality of the anatomical location. Sponsors may collect the data using a subset list of controlled terminology on the CRF."
"CDASHIG v2.3","Interventions","PR",,"29","PRPORTOT","Procedure Portion or Totality","Qualifier for anatomical location, further detailing the distribution (i.e., arrangement of, apportioning of).","What was the portion or totality of the anatomical location that was treated?","Portion or Totality","Char","O","Record the portion of the body location that was treated.","PRPORTOT","Maps directly to the SDTMIG variable listed in the SDTMIG Target column.","C99075","PORTOT","Collected when the sponsor needs to identify the specific portionality for the anatomical locations. Sponsors may collect the data using a subset list of controlled terminology on the CRF."
"CDASHIG v2.3","Interventions","PR",,"30","PRFAST","Procedure Fasting Status","An indication that the subject has abstained from food/water for the specified amount of time.","Was the subject fasting?","Fasting","Char","O","Record whether the subject was fasting prior to the procedure being performed.","","Maps directly to the SDTMIG variable listed in the SDTMIG Target column.","C66742","NY","This information is collected when the procedure may be affected by whether the subject was fasting. This may not be relevant for all procedures."
"CDASHIG v2.3","Interventions","PR",,"31","PRDOSRGM","Procedure Intended Dose Regimen","The text description of the (intended) schedule or regimen for the procedure.","What was the intended procedure regimen?","Intended Procedure Regimen","Char","O","Record the intended regimen for the procedure to be performed.","PRDOSRGM","Maps directly to the SDTMIG variable listed in the SDTMIG Target column.","","","The regimen information may further clarify the dose administration and dose frequency (e.g., TWO WEEKS ON, TWO WEEKS OFF). This may be prespecified or collected. The sponsor may wish to create a codelist to collect this data consistently."
"CDASHIG v2.3","Interventions","PR",,"32","PRDOSADJ","Procedure Adjusted","An indication of whether the procedure dose/amount was adjusted.","Was the procedure dose adjusted?","(Dose) Adjusted","Char","O","Record if the procedure was adjusted from planned.","","When PRADJ is collected, does not map to an SDTMIG variable. The SDTM annotated CRF indicates that this field is NOT SUBMITTED. When PRADJ is not collected, the sponsor may submit this variable as a SUPPQ.","C66742","NY","Typically, the intent/purpose of collecting this field is to help with data cleaning and monitoring. It provides verification that the associate field on the CRF (PRADJ) was deliberately left blank. However, the sponsor may collect whether the procedure dose/amount was adjusted, without collecting the reason for the change."
"CDASHIG v2.3","Interventions","PR",,"33","PRADJ","Reason for Procedure Adjustment","Description of or explanation for why a procedure dose/amount was adjusted.","What was the reason the procedure dose was adjusted?","Reason Adjusted","Char","O","Record why the procedure dose was adjusted from planned.","","Maps directly to the SDTMIG variable listed in the SDTMIG Target column.","","","Captures the reason the PRTRT dose was changed or modified. The reason may be chosen from a sponsor-defined list (e.g., adverse event, insufficient response) or entered as free text."
"CDASHIG v2.3","Interventions","PR",,"34","PRTRTCMP","Completed Procedure","Indication of whether the subject completed the intended regimen.","Did the subject complete the full course of the [PRTRT]?","Completed [PR Intervention Topic]","Char","O","Record if the subject completed the intended regimen.","QVAL","This does not map directly to an SDTMIG variable. This information could be submitted in a SUPPPR dataset as the value of SUPPPR.QVAL where SUPPPR.QNAM= ""PRTRTCMP"" and SUPPPR.QLABEL=""Treatment Completed"". Refer to the current SDTM and SDTMIG for instructions on placement of NSVs in SDTM domains.","C66742","NY","Depending on how the PTTRT dose details are collected via the CRF/eCRF, it may be possible to derive those data if the regimen data are collected."
"CDASHIG v2.3","Interventions","PR",,"35","PRITRPYN","Procedure Interrupted","An indication of whether the procedure was interrupted.","Was the procedure interrupted?","Procedure Interrupted","Char","O","Record if the procedure was interrupted.","","Does not map to an SDTMIG variable. The SDTM annotated CRF indicates that this field is NOT SUBMITTED.","C66742","NY","Provides a definitive response regarding any procedure interruption. The intent/purpose of collecting this field is to help with data cleaning and monitoring when the duration of the interruption is collected. In some situations, if the actual duration of the interruption is not collected, or not derived, this information could be submitted in a SUPPPR dataset."
"CDASHIG v2.3","Interventions","PR",,"36","PRITRPRS","Reason Procedure Interrupted","An explanation for why the intervention was interrupted.","Why was the procedure interrupted?","Reason Procedure Interrupted","Char","O","Record the reason the procedure was interrupted.","QVAL","This information could be submitted in a SUPPPR dataset as the value of SUPPPR.QVAL where SUPPPR.QNAM=""PRITRPRS"" and SUPPPR.QLABEL =""Reason Intervention Interrupted"". Refer to the current SDTM and SDTMIG for instructions on placement of NSVs in SDTM domains.","","","This CDASH field is use to collected the reason why an intervention was interrupted. The sponsor may define controlled terminology."
"CDASHIG v2.3","Interventions","PR",,"37","PRCINTD","Procedure Interruption Duration","The collected duration of the procedure interruption.","What was the duration of the procedure interruption?","(Interruption) Duration","Char","O","Record how long the procedure was interrupted before it resumed.","QVAL","This does not map directly to an SDTMIG variable. This information could be submitted in a SUPPPR dataset as the value of SUPPPR.QVAL where SUPPPR.QNAM=""PRITRPD"" and SUPPPR.QLABEL= ""Interruption Duration"". Concatenate the collected procedure interruption duration and the duration unit components and create PRITRPD using ISO 8601 Period format. Refer to the current SDTM and SDTMIG for instructions on placement of NSVs in SDTM domains.","","","This field is used to collect the duration of procedure interruption. In some situations, the duration of the interruption may not be collected but calculated from the procedure start and end times recorded elsewhere in the CRF."
"CDASHIG v2.3","Interventions","PR",,"38","PRCINTDU","Procedure Interruption Duration Units","The unit for the collected duration of the procedure interruption.","What was the interruption duration unit?","(Interruption Duration) Unit","Char","O","Record the unit for the duration of interruption of the procedure.","QVAL","This does not map directly to an SDTMIG variable. This information could be submitted in a SUPPPR dataset as the value of SUPPPR.QVAL where SUPPPR.QNAM=""PRITRPD"" and SUPPPR.QLABEL= ""Interruption Duration"". Concatenate the collected procedure interruption duration and the duration unit components and create PRITRPD using ISO 8601 Period format. Refer to the current SDTM and SDTMIG for instructions on placement of NSVs in SDTM domains.","C71620","UNIT","The unit should be collected as a qualifier to the number for duration."
"CDASHIG v2.3","Interventions","PR",,"39","PRLLT","Procedure Lowest Level Term","The dictionary-derived text description of the lowest level term.",,,"Char","O",,"QVAL","This information could be submitted in a SUPPPR dataset as the value of SUPPPR.QVAL where SUPPPR.QNAM=""PRLLT"" and SUPPPR.QLABEL=""Lower Level Term"". Refer to the current SDTM and SDTMIG for instructions on placement of NSVs in SDTM domains. Sponsors should include an Origin column in the SUPPQ dataset to indicate that the data was ""ASSIGNED"".","","","This field does not typically appear on the CRF. Sponsors will populate this through the coding process. This is applicable to items using MedDRA coding. Rationale for adding coding variables to CDASH is to provide a more complete data management package. This variable could be used in the PR domain for coding. Another dictionary can be used and the appropriate coding elements added, if appropriate, in the SUPPPR.QVAL dataset."
"CDASHIG v2.3","Interventions","PR",,"40","PRLLTCD","Procedure Lowest Level Term Code","The dictionary-derived code for the lowest level term.",,,"Num","O",,"QVAL","This information could be submitted in a SUPPPR dataset as the value of SUPPPR.QVAL where SUPPPR.QNAM=""PRLLTCD"" and SUPPPR.QLABEL=""Lower Level Term Code"". Refer to the current SDTM and SDTMIG for instructions on placement of NSVs in SDTM domains. Sponsors should include an Origin column in the SUPPQ dataset to indicate that the data was ""ASSIGNED"".","","","This field does not typically appear on the CRF. Sponsors will populate this through the coding process. This is applicable to items using MedDRA coding. Rationale for adding coding variables to CDASH is to provide a more complete data management package. This variable could be used in the PR domain for MedDRA coding. Other dictionaries can be used and the appropriate coding elements added, if appropriate, in the SUPPPR.QVAL dataset."
"CDASHIG v2.3","Interventions","PR",,"41","PRPTCD","Procedure Preferred Term Code","The dictionary-derived code for the preferred term.",,,"Num","O",,"QVAL","This information could be submitted in a SUPPPR.QVAL dataset where SUPPPR.QNAM=""PRPTCD"" and SUPPPR.QLABEL= ""Preferred Term Code Lower Level Term Code"". Refer to the current SDTM and SDTMIG for instructions on placement of NSVsin SDTM domains. Sponsors should include an Origin column in the SUPPQ dataset to indicate that the data was ""ASSIGNED"".","","","This field does not typically appear on the CRF. Sponsors will populate this through the coding process. This is applicable to items using MedDRA coding. Rationale for adding coding variables to CDASH is to provide a more complete data management package. This variable could be used in the PR domain for MedDRA coding. Other dictionaries can be used and the appropriate coding elements added, if appropriate, in the SUPPPR.QVAL dataset."
"CDASHIG v2.3","Interventions","PR",,"42","PRHLT","Procedure High Level Term","The dictionary-derived text description of the high level term for the primary system organ class (SOC).",,,"Char","O",,"QVAL","This information could be submitted in a SUPPPR dataset as the value of SUPPPR.QVAL where SUPPPR.QNAM=""PRHLT"" and SUPPPR.QLABEL=""High Level Term"". Refer to the current SDTM and SDTMIG for instructions on placement of NSVs in SDTM domains. Sponsors should include an Origin column in the SUPPQ dataset to indicate that the data was ""ASSIGNED"".","","","This is not a data collection field that would appear on the CRF. Sponsors populate this through the coding process. This is applicable to items using MedDRA coding. Rationale for adding coding variables to CDASH is to provide a more complete data management package. This variable could be used in the PR domain for MedDRA coding. Other dictionaries can be used and the appropriate coding elements added, if appropriate, in the SUPPPR.QVAL dataset."
"CDASHIG v2.3","Interventions","PR",,"43","PRHLTCD","Procedure High Level Term Code","The dictionary-derived code for the high level term for the primary system organ class (SOC).",,,"Num","O",,"QVAL","This information could be submitted in a SUPPPR.QVAL dataset where SUPPPR.QNAM=""PRHLTCD"" and SUPPPR.QLABEL=""High Level Term Code"". Refer to the current SDTM and SDTMIG for instructions on placement of NSVs in SDTM domains. Sponsors should include an Origin in the define metadata document to indicate that the data was ""ASSIGNED"".","","","This is not a data collection field that would appear on the CRF. Sponsors will populate this through the coding process. This is applicable to items using MedDRA coding. Rationale for adding coding variables to CDASH is to provide a more complete data management package. This variable could be used in the PR domain for MedDRA coding. Other dictionaries can be used and the appropriate coding elements added, if appropriate, in the SUPPPR.QVAL dataset."
"CDASHIG v2.3","Interventions","PR",,"44","PRHLGT","Procedure High Level Group Term","The dictionary-derived text description of the high level group term for the primary system organ class (SOC).",,,"Char","O",,"QVAL","This information could be submitted in a SUPPPR dataset as the value of SUPPPR.QVAL where SUPPPR.QNAM=""PRHLTGT"" and SUPPPR.QLABEL=""High Level Group Term"". Refer to the current SDTM and SDTMIG for instructions on placement of NSVs in SDTM domains. Sponsors should include an Origin column in the SUPPQ dataset to indicate that the data was ""ASSIGNED"".","","","This field does not typically appear on the CRF. Sponsors will populate this through the coding process. This is applicable to items using MedDRA coding. Rationale for adding coding variables to CDASH is to provide a more complete data management package. This variable could be used in the PR domain for MedDRA coding. Other dictionaries can be used and the appropriate coding elements added, if appropriate, in the SUPPPR.QVAL dataset."
"CDASHIG v2.3","Interventions","PR",,"45","PRHLGTCD","Procedure High Level Group Term Code","The dictionary-derived code for the high level group term for the primary system organ class (SOC).",,,"Num","O",,"QVAL","This information could be submitted in a SUPPPR dataset as the value of SUPPPR.QVAL where SUPPPR.QNAM= ""PRHLTGTCD"" and SUPPPR.QLABEL=""High Level Group Term Code"". Refer to the current SDTM and SDTMIG for instructions on placement of NSVs in SDTM domains. Sponsors should include an Origin column in the SUPPQ dataset to indicate that the data was ""ASSIGNED"".","","","This is not a data collection field that would appear on the CRF. Sponsors will populate this through the coding process. This is applicable to items using MedDRA coding. Rationale for adding coding variables to CDASH is to provide a more complete data management package. This variable could be used in the PR domain for MedDRA coding. Other dictionaries can be used and the appropriate coding elements added, if appropriate, in the SUPPPR.QVAL dataset."
"CDASHIG v2.3","Interventions","PR",,"46","PRSOC","PR Primary System Organ Class","The dictionary-derived text description of the primary system organ class (SOC).",,,"Char","O",,"QVAL","This information could be submitted in a SUPPPR.QVAL dataset where SUPPPR.QNAM=""PRSOC"" and SUPPPR.QLABEL=""Primary System Organ Class"". Refer to the current SDTM and SDTMIG for instructions on placement of NSVs in SDTM domains. Sponsors should include an Origin in the define metadata document to indicate that the data was ""ASSIGNED"".","","","This is not a data collection field that would appear on the CRF. Sponsors will populate this through the coding process. This is applicable to items using MedDRA coding. Rationale for adding coding variables to CDASH is to provide a more complete data management package. This variable could be used in the PR domain for MedDRA coding. Other dictionaries can be used and the appropriate coding elements added, if appropriate, in the SUPPPR.QVAL dataset."
"CDASHIG v2.3","Interventions","PR",,"47","PRSOCCD","PR Primary System Organ Class Code","The dictionary-derived code for the primary system organ class (SOC).",,,"Num","O",,"QVAL","This information could be submitted in a SUPPPR dataset as the value of SUPPPR.QVAL where SUPPPR.QNAM= ""PRSOCCD"" and SUPPPR.QLABEL=""Primary System Organ Class Code"". Refer to the current SDTM and SDTMIG for instructions on placement of NSVs in SDTM domains. Sponsors should include an Origin column in the SUPPQ dataset to indicate that the data was ""ASSIGNED"".","","","This field does not typically appear on the CRF. Sponsors will populate this through the coding process. This is applicable to items using MedDRA coding. Rationale for adding coding variables to CDASH is to provide a more complete data management package. This variable could be used in the PR domain for MedDRA coding. Other dictionaries can be used and the appropriate coding elements added, if appropriate, in the SUPPPR.QVAL dataset."
"CDASHIG v2.3","Interventions","SU",,"1","STUDYID","Study Identifier","A unique identifier for a study.","What is the study identifier?","[Protocol/Study]","Char","HR",,"STUDYID","Maps directly to the SDTMIG variable listed in the SDTMIG Target column.","","","Although this field is not typically captured on a CRF, it should be displayed clearly on the CRF and/or in the EDC system. This field can be included into the database or populated during SDTM-based dataset creation before submission."
"CDASHIG v2.3","Interventions","SU",,"2","SITEID","Study Site Identifier","A unique identifier for a site within a study.","What is the site identifier?","Site (Identifier)","Char","HR",,"SITEID","Maps directly to the SDTMIG variable listed in the SDTMIG Target column.","","","Paper: This is typically preprinted in the header of each CRF page for single-site studies. For studies with multiple sites, this field may be left blank so that the number can be recorded by the site, or it may be preprinted on the CRFs that are shipped to each site. \n EDC: This should be prepopulated."
"CDASHIG v2.3","Interventions","SU",,"3","SUBJID","Subject Identifier for the Study","A unique subject identifier within a site and a study.","What [is/was] the (study) [subject/participant] identifier?","[Subject/Participant] (Identifier)","Char","HR","Record the identifier for the subject.","SUBJID","Maps directly to the SDTMIG variable listed in the SDTMIG Target column.","","","Paper: This is typically recorded in the header of each CRF page. EDC: The subject identifiers may be system generated. This CDASH variable is typically collected in all CDASH domains. However, this CDASH variable is populated only in the SDTMIG DM domain. For more information, refer to the SDTMIG."
"CDASHIG v2.3","Interventions","SU",,"4","SUTRT","Reported Name of Substance","The type of substance (e.g., TOBACCO, ALCOHOL, CAFFEINE or CIGARETTES, CIGARS, COFFEE).","What [is/was] the [name/type] of (the) substance used?","[Type of Substance]","Char","HR",,"SUTRT","Maps directly to the SDTMIG variable listed in the SDTMIG Target column.","","","Sponsors may require different types of substance-use data (e.g., illicit drug use, cigarettes); the value for category may be preprinted on the CRF as a label for the prompt for Substance Use. If a more detailed type of substance appears on the CRF (e.g., CIGARETTES, CIGARS rather than TOBACCO), SUCAT should be TOBACCO and SUTRT should be CIGARETTES."
"CDASHIG v2.3","Interventions","SU",,"5","SUCAT","Category for Substance Use","A grouping of topic-variable values based on user-defined characteristics.","What is/was the category of the substance (used)?","[Substance (Used) Category]; NULL","Char","R/C","Record the Substance Used category, if not preprinted on the CRF.","SUCAT","Maps directly to the SDTMIG variable listed in the SDTMIG Target column.","","","Sponsor-defined controlled terminology (e.g., TOBACCO, ALCOHOL, CAFFEINE). Sponsors may require different types of substance-use data (e.g., illicit drug use, cigarettes); the value for category may be preprinted on the CRF. If a more detailed type of substance appears on the CRF (e.g., CIGARETTES, CIGARS, rather than TOBACCO), SUCAT is TOBACCO and SUTRT is CIGARETTES. If the sponsor does not specify a type of tobacco on the CRF, SUTRT is TOBACCO. If SUCAT is not collected (e.g., it is evident from the protocol design), it could be populated during the SDTM-based dataset creation process."
"CDASHIG v2.3","Interventions","SU",,"6","SUSCAT","Subcategory for Substance Use","A sub-division of the SUCAT values based on user-defined characteristics.","What was the subcategory of the substance (used)?","[Substance (Used) Subcategory]; NULL","Char","O","Record the Substance Use subcategory, if not preprinted on the CRF.","SUSCAT","Maps directly to the SDTMIG variable listed in the SDTMIG Target column.","","","Sponsor-defined controlled terminology. The value for subcategory may be preprinted on the CRF or hidden. SUSCAT can only be used if there is a SUCAT and it must be a subcategorization of SUCAT."
"CDASHIG v2.3","Interventions","SU",,"7","SUPRESP","SU Prespecified","An indication that a specific intervention or a group of interventions is prespecified on a CRF.",,,"Char","O",,"SUPRESP","Maps directly to the SDTMIG variable listed in the SDTMIG Target column.","C66742","NY","For prespecified interventions, a hidden field on a CRF defaulted to ""Y"", or added during the SDTM dataset creation. If a study collects both prespecified and free-text interventions, the value of SUPRESP should be ""Y"" for all prespecified interventions and null for interventions reported as free text."
"CDASHIG v2.3","Interventions","SU",,"8","SUYN","Any Substance Used","An indication of whether any data was collected for the intervention topic.","Were any [sponsor-phrase/substance name/recreational drugs] used?","Any [Substance Name (Used)]","Char","O","Indicate if the subject had used any (sponsor-defined phrase/recreational drugs/alcohol/substance name).","","Does not map to an SDTMIG variable. The SDTM annotated CRF indicates that this field is NOT SUBMITTED.","C66742","NY","General prompt question to aid in monitoring and data cleaning. This provides verification that all other fields on the CRF were deliberately left blank. This is a field that can be used on any Interventions CRF to indicate whether there is data to record."
"CDASHIG v2.3","Interventions","SU",,"9","SUNCF","Never Current Former Usage","Indication the prespecified substance was used.","Has the subject ever [used/consumed] [SUTRT/SUCAT]?","([Substance]) Usage","Char","R/C","Check the appropriate box to indicate if the subject has ever used/consumed tobacco/alcohol/caffeine, currently consumes tobacco/alcohol/caffeine, or formerly used/consumed tobacco/alcohol/caffeine.","SUOCCUR; SUSTRTPT; SUSTRF; SUENRTPT; SUENRF; QVAL","This does not map directly to an SDTMIG variable. May be used to populate SUOCCUR and relative timing variables.","C78738; C83004","NCF; SUNCF","The 3 options (NEVER, CURRENT, FORMER) are sponsor-defined in relation to the protocol. If the sponsor has specific definitions, these definitions are detailed in the instructions to the site. As this type of response does not correspond exactly to an SDTM variable, CDASH recommends using the CDASHIG variable SUNCF. Sponsors must decide how to populate the appropriate relative timing variables when creating the SDTM-based datasets. For example, If SUNCF =""Never"", the value of SUOCCUR will be ""N"" and all relative timing variables will be null. If the sponsor chooses to populate the relative start references (SUSTRTPT, SUSTRF) the value will be ""BEFORE"" when SUNCF= ""CURRENT"" and ""FORMER"". If the sponsor also chooses to use relative end references (SUENRF, SUENRTPT) , the SUENRTPT value will be ""ONGOING"" when SUNCF=""CURRENT"" while the value of SUENRF will be ""DURING/AFTER"". \n Note: When using SUSTRTPT and/or SUENRTPT, these must refer to a time-point anchor (e.g., SCREENING, in SUSTTPT/SUENTPT)."
"CDASHIG v2.3","Interventions","SU",,"10","SUSPID","Substance Use Sponsor-Defined Identifier","A sponsor-defined identifier. In CDASH, this is typically used for preprinted or auto-generated numbers on the CRF, or any other type of identifier that does not already have a defined CDASH identifier field.","[Sponsor-defined question]","[Sponsor defined]","Char","O","If collected on the CRF, sponsor may insert instructions to ensure each record has a unique identifier.","SUSPID","Maps directly to the SDTMIG variable listed in the SDTMIG Target column. May be used to create RELREC to link this record with a record in another domain.","","","Because SPID is a sponsor-defined identifier, conformance to Question Text or Item Prompt is not applicable. Typically used as an identifier in a data query to communicate clearly to the site the specific record in question or to reconcile data. May be used to record preprinted number (e.g., line number, record number) on the CRF. This field may be populated by the sponsor's data collection system."
"CDASHIG v2.3","Interventions","SU",,"11","SUREASND","Reason Substance Use Not Collected","An explanation for why data are not available.","What was the reason the data was not collected?","Reason Not Collected","Char","O","Provide the reason why the substance used data were not collected.","SUREASND","Maps directly to the SDTMIG variable listed in the SDTMIG Target column.","","","The reason data are not available may be chosen from a sponsor-defined list (e.g., subject refused) or entered as free text. When SUREASND is used, the SDTMIG variable SUSTAT should also be populated in the SDTM-based dataset."
"CDASHIG v2.3","Interventions","SU",,"12","SUDSTXT","Substance Dose Description","The amount of substance used (e.g., 1-2 packs, 8 oz).","What is/was the amount of [SUTRT] used/consumed?","Amount","Char","O","Check the appropriate box to indicate the amount of tobacco/alcohol/caffeine the subject consumes on a regular basis.","SUDOSE; SUDOSU; SUDOSTXT","This does not map directly to an SDTMIG variable. Numeric values map to SUDOSE in SDTM. Non-numeric values (e.g., 200-400) map to SUDOSTXT in SDTM.","","","Where possible, the options for dose/amount are preprinted on the CRF. In the example given in the definition, ""packs"" and ""ounces"" are included as a point of reference. They would, of course, be submitted as SUDOSU. Care should be taken to map each record to the appropriate SDTM variable SUDOSTXT (text results that cannot be represented in a numeric field) and SUDOSE (numeric results)."
"CDASHIG v2.3","Interventions","SU",,"13","SUDOSFRQ","Substance Use Frequency per Interval","The number/amount of the of substance consumed per a specific interval.","What [is/was] the frequency of [SUTRT] [use/consumption]?","Frequency","Char","O","Record how often the subject regularly [uses / consumes] (the) [substance].","SUDOSFRQ","Maps directly to the SDTMIG variable listed in the SDTMIG Target column.","C71113","FREQ","When possible, the options for dose/amount frequency are preprinted on the CRF. (e.g., PER DAY, PER WEEK, OCCASIONAL)."
"CDASHIG v2.3","Interventions","SU",,"14","SUSTDAT","Substance Use Start Date","The date substance use started, represented in an unambiguous date format (e.g., DD-MON-YYYY.","What was the start date of [SUTRT/SUCAT] use/consumption?","Start Date","Char","O","Record the start date of the substance use using this format (DD-MON-YYYY).","SUSTDTC","This does not map directly to an SDTMIG variable. For the SDTM submission dataset, concatenate all collected CDASH START DATE and TIME components and populate the SDTMIG variable SUSTDTC in ISO 8601 format.","","","The sponsor may choose to capture a complete date or any variation thereof (e.g., month and year, year)."
"CDASHIG v2.3","Interventions","SU",,"15","SUENDAT","Substance Use End Date","The date substance use ended, represented in an unambiguous date format (e.g., DD-MON-YYYY).","What was the end date of [SUTRT/SUCAT] use/consumption?","End Date","Char","O","Record the end date of the substance use using this format (DD-MON-YYYY).","SUENDTC","This does not map directly to an SDTMIG variable. For the SDTM submission dataset, concatenate all collected CDASH END DATE and TIME components and populate the SDTMIG variable SUENDTC in ISO 8601 format.","","","The sponsor may choose to capture a complete date or any variation thereof (e.g., month and year, year)."
"CDASHIG v2.3","Interventions","SU",,"16","SUCDUR","Substance Use Collected Duration","Collected duration of the substance use.","What was the duration of [SUTRT/SUCAT] use/consumption?","Duration","Char","O","Provide the duration of the substance use (e.g., Record how long the subject has smoked).","SUDUR","This does not map directly to an SDTMIG variable. For the SDTM-based dataset, concatenating the CDASH collected duration and collected duration unit and populate the SDTMIG variable SUDUR in ISO 8601 format. Example: P1DT2H (for 1 day, 2 hours).","","","This is only collected on the CRF if this level of detail is needed and if SUSTDAT and SUENDAT are not collected on the CRF."
"CDASHIG v2.3","Interventions","SU",,"17","SUCDURU","Substance Use Collected Duration Unit","Unit of the collected duration of the substance use. Used only if duration was collected on the CRF.","What was the unit of duration of [SUTRT/SUCAT] use/consumption?","(Duration) Unit","Char","O","Select the appropriate duration unit of the substance use.","SUDUR","This does not map directly to an SDTMIG variable. For the SDTM-based dataset, concatenating the CDASH collected duration and collected duration unit and populate the SDTMIG variable SUDUR in ISO 8601 format. Example: P1DT2H (for 1 day, 2 hours).","C71620","UNIT","Sponsor-defined options should be preprinted on the CRF to avoid making this a free-text field. This will allow the response to be translated into ISO 8601 format."
"CDASHIG v2.3","Interventions","SU",,"18","SUMODIFY","Modified Substance Name","If the value for SUTERM is modified for coding purposes, then the modified text is placed here.",,,"Char","O",,"SUMODIFY","Maps directly to the SDTMIG variable listed in the SDTMIG Target column.","","","This is not a data collection field that would appear on the CRF. If the sponsor chooses to code the substance use, the sponsor will populate this through the coding process."
"CDASHIG v2.3","Interventions","SU",,"19","SUDECOD","Standardized Substance Name","The dictionary or sponsor-defined standardized text description of SUTRT, or the modified topic variable (SUMODIFY), if applicable.",,,"Char","O",,"SUDECOD","Maps directly to the SDTMIG variable listed in the SDTMIG Target column. The sponsor is expected to provide the dictionary name and version used to map the terms utilizing the Define-XML external codelist attributes. Sponsors should include an Origin in the define metadata to indicate that the data was ""ASSIGNED"".","","","This is typically not a data collection field that will appear on the CRF. If the sponsor chooses to code the substance use, the sponsor will populate this through the coding process. Equivalent to the generic drug name in published (e.g., WHODrug, SNOMED, ICD9) or sponsor-defined dictionaries. If SUPRESP is used, and the information about a specific standardized substance name is being solicited, the data from SUTRT may map directly to the SDTMIG SUDECOD variable."
"CDASHIG v2.3","Events","AE",,"1","STUDYID","Study Identifier","A unique identifier for a study.","What is the study identifier?","[Protocol/Study]","Char","HR",,"STUDYID","Maps directly to the SDTMIG variable listed in the SDTMIG Target column.","","","Although this field is not typically captured on a CRF, it should be displayed clearly on the CRF and/or the EDC system. This field can be included into the database or populated during SDTM-based dataset creation before submission."
"CDASHIG v2.3","Events","AE",,"2","SITEID","Study Site Identifier","A unique identifier for a site within a study.","What is the site identifier?","Site (Identifier)","Char","HR",,"SITEID","Maps directly to the SDTMIG variable listed in the SDTMIG Target column.","","","Paper: This is typically preprinted in the header of each CRF page for single-site studies. For studies with multiple sites, this field may be left blank so that the number can be recorded by the site, or it may be preprinted for the CRFs that are shipped to each site. \n EDC: This should be prepopulated."
"CDASHIG v2.3","Events","AE",,"3","SUBJID","Subject Identifier for the Study","A unique subject identifier within a site and a study.","What [is/was] the (study) [subject/participant] identifier?","[Subject/Participant] (Identifier)","Char","HR","Record the identifier for the subject.","SUBJID","Maps directly to the SDTMIG variable listed in the SDTMIG Target column.","","","Paper: This is typically recorded in the header of each CRF page. EDC: The subject identifiers may be system generated. This CDASH variable is typically collected in all CDASH domains. However, this CDASH variable is populated only in the SDTMIG DM domain. For more information, refer to the SDTMIG."
"CDASHIG v2.3","Events","AE",,"4","AEYN","Any Adverse Event","An indication of whether any AEs were experienced during the study.","Were any adverse events experienced?","Any Adverse Events","Char","O","Indicate if the subject experienced any adverse events. If Yes, include the appropriate details where indicated on the CRF.","","Does not map to an SDTMIG variable. The SDTM annotated CRF indicates that this field is NOT SUBMITTED.","C66742","NY","The intent/purpose of collecting this field is to help with data cleaning and monitoring. It provides verification that all other fields on the CRF were deliberately left blank."
"CDASHIG v2.3","Events","AE",,"5","AECAT","Category for Adverse Event","A grouping of topic-variable values based on user-defined characteristics.","What is the category of the adverse event?","[Adverse Event Category]; NULL","Char","O","Record the adverse event category, if not preprinted on the CRF.","AECAT","Maps directly to the SDTMIG variable listed in the SDTMIG Target column.","","","Sponsor-defined controlled terminology. This would most commonly be either a heading or a preprinted category value on the CRF, and not a question to which the site would provide an answer. If a question is asked, the response would typically be a sponsor-defined codelist. If the form is laid out as a grid, then words such as ""Category"" can be included as the column heading."
"CDASHIG v2.3","Events","AE",,"6","AESCAT","Subcategory for Adverse Event","A sub-division of the AECAT values based on user-defined characteristics.","What is the subcategory of the adverse event?","[Adverse Event Subcategory]; NULL","Char","O","Record the adverse event subcategory, if not preprinted on the CRF.","AESCAT","Maps directly to the SDTMIG variable listed in the SDTMIG Target column.","","","Sponsor-defined controlled terminology. This would most commonly be preprinted on the CRF or screen and prepopulated in the data management system. This is not typically a question to which the site would provide an answer. AESCAT can only be used if there is an AECAT and it must be a subcategorization of AECAT."
"CDASHIG v2.3","Events","AE",,"7","AESPID","AE Sponsor-Defined Identifier","A sponsor-defined identifier. In CDASH, This is typically used for preprinted or auto-generated numbers on the CRF, or any other type of identifier that does not already have a defined CDASH identifier field.","[Sponsor-defined question]","[Sponsor defined]","Char","O","If collected on the CRF, sponsor may insert instructions to ensure each record has a unique identifier.","AESPID","Maps directly to the SDTMIG variable listed in the SDTMIG Target column. May be used to create RELREC to link this record with a record in another domain.","","","Because SPID is a sponsor-defined identifier, conformance to Question Text or Item Prompt is not applicable. Typically used as an identifier in a data query to communicate clearly to the site the specific record in question or to reconcile concomitant medications, procedures and/or medical history records with AEs. If CMAENO or PRAENO is used, this is the identifier to which CMAENO or PRAENO refers. May be used to record preprinted number (e.g., line number, record number) on the CRF. This field may be populated by the sponsor's data collection system."
"CDASHIG v2.3","Events","AE",,"8","AETERM","Reported Term for the Adverse Event","The reported or prespecified name of the adverse event.","What is the adverse event term?","Adverse Event","Char","HR","Record only 1 diagnosis, sign, or symptom per line (e.g., nausea and vomiting should not be recorded in the same entry, but as 2 separate entries). Using accepted medical terminology, enter the diagnosis (if known); otherwise enter a sign or symptom.","AETERM","Maps directly to the SDTMIG variable listed in the SDTMIG Target column.","","","Can be represented either as an open-entry field to capture verbatim terms reported by subjects or preprinted, in the situation where solicited AEs of interest are captured. In most cases, the verbatim term (i.e., investigator-reported term) will be coded to a standard medical dictionary (e.g., MedDRA, WHO ART) after the data have been collected on the CRF."
"CDASHIG v2.3","Events","AE",,"9","AEOCCUR","Adverse Event Occurrence","An indication of whether a prespecified adverse event or a group of adverse events occurred when information about the occurrence of a specific event is solicited.","Did the subject have [prespecified adverse event/group of adverse events]?","[Specific Adverse Event ]","Char","O","Indicate if [specific adverse event] has occurred/is occurring, by checking Yes or No.","","This does not map directly to an SDTMIG variable. Because the SDTM AE domain is intended to hold only adverse events that actually happen, all values collected in AEOCCUR for prespecified AEs should be submitted in a Findings About Adverse Events data set (FAAE) where FAORRES=the value of AEOCCUR where FATESTCD=""OCCUR"". In addition, where AEOCCUR=""Y"", there should be a corresponding record in the AE domain.","C66742","NY","The CDASH variable AEOCCUR is used to indicate the occurrence of prespecified adverse events (e.g., ""Did the subject have high blood pressure?""). AEOCCUR should not be used for spontaneously reported adverse events. The site should be able to indicate that the response was not asked or answered."
"CDASHIG v2.3","Events","AE",,"10","AEPRESP","prespecified Adverse Event","An indication that a specific event or group of events are prespecified on a CRF.",,,"Char","O",,"AEPRESP","Maps directly to the SDTMIG variable listed in the SDTMIG Target column.","C66742","NY","A hidden field on a CRF defaulted to ""Y"", or added during SDTM-based dataset creation, when the AE is prespecified. Null for spontaneously reported events. If a study collects both prespecified and free-text adverse events, the value of AEPRESP should be ""Y"" for all prespecified events and null for events reported as free-text. AEPRESP is a permissible field in SDTM and may be omitted from the SDTM-based dataset if all events were collected as free text."
"CDASHIG v2.3","Events","AE",,"11","AESTDAT","Adverse Event Start Date","The start date of the adverse event, represented in an unambiguous date format (e.g., DD-MON-YYYY).","What is the adverse event start date?","Start Date","Char","HR","Record the start date of the adverse event using this format (DD-MON-YYYY).","AESTDTC","This does not map directly to an SDTMIG variable. For the SDTM submission dataset, concatenate all collected CDASH START DATE and TIME components and populate the SDTMIG variable AESTDTC in ISO 8601 format.","","",
"CDASHIG v2.3","Events","AE",,"12","AESTTIM","Start Time of Adverse Event","The start time of the adverse event, represented in an unambiguous time format (e.g., hh:mm:ss).","What is the adverse event start time?","Start Time","Char","R/C","Record the start time (as complete as possible) of the adverse event.","AESTDTC","This does not map directly to an SDTMIG variable. For the SDTM submission dataset, concatenate all collected CDASH START DATE and TIME components and populate the SDTMIG variable AESTDTC in ISO 8601 format.","","","Collecting the time an AE started is only appropriate if it can be realistically determined and if there is a scientific reason for needing to know this level of detail. An example is where the subject is under the direct care of the site at the time the event started and the study design is such that it is important to know the AE start time with respect to dosing."
"CDASHIG v2.3","Events","AE",,"13","AELOC","AE Location of Event","A description of the anatomical location relevant for the adverse event.","What is the anatomical location of the adverse event?","Anatomical Location","Char","O","Indicate the anatomical location of the adverse event.","AELOC","Maps directly to the SDTMIG variable listed in the SDTMIG Target column.","C74456","LOC","Collected or preprinted when the sponsor needs to identify the specific anatomical location. Sponsors may collect the data using a subset list of controlled terminology on the CRF. LAT, DIR, PORTOT are used to further describe the anatomical location."
"CDASHIG v2.3","Events","AE",,"14","AELAT","Adverse Event Laterality","Qualifier for anatomical location, further detailing the side of the body relevant for the event.","What is the side of the anatomical location of the adverse event?","Side","Char","O","Record the side of the anatomical location of the adverse event.","","Maps directly to the SDTMIG variable listed in the SDTMIG Target column.","C99073","LAT","May be preprinted or collected when the sponsor needs to identify the specific side of the anatomical location. Sponsors may collect the data using a subset list of controlled terminology on the CRF."
"CDASHIG v2.3","Events","AE",,"15","AEDIR","Adverse Event Directionality","Qualifier further detailing the position of the anatomical location, relative to the center of the body, organ, or specimen.","What is the directionality of the anatomical location of the adverse event?","Directionality","Char","O","Record the directionality of the anatomical location of the adverse event.","","Maps directly to the SDTMIG variable listed in the SDTMIG Target column.","C99074","DIR","May be preprinted or collected when the sponsor needs to identify the directionality of the anatomical location. Sponsors may collect the data using a subset list of controlled terminology on the CRF."
"CDASHIG v2.3","Events","AE",,"16","AEPORTOT","AE Location Portion or Totality","Qualifier for anatomical location, further detailing the distribution (i.e., arrangement of, apportioning of).","What is the portion or totality of the anatomical location of the adverse event?","Portion or Totality","Char","O","Indicate the portion or totality anatomical location of the adverse event.","","Maps directly to the SDTMIG variable listed in the SDTMIG Target column.","C99075","PORTOT","Collected when the sponsor needs to identify the specific portionality for the anatomical locations. Sponsors may collect the data using a subset list of controlled terminology on the CRF."
"CDASHIG v2.3","Events","AE",,"17","AEONGO","Ongoing Adverse Event","Indication that an adverse event is ongoing when no end date is provided.","Is the adverse event ongoing (as of [the study-specific time point or period])?","Ongoing (as of [the study-specific time point or period])","Char","O","Indicate if the adverse event has not resolved at the time of data collection; leave the End Date blank.","AEENRTPT; AEENRF","This does not map directly to an SDTMIG variable. May be used to populate a value into an SDTMIG relative timing variable such as AEENRF or AEENRTPT. When populating AEENRF, if the value of AEONGO is ""Y"", the value of ""DURING"", ""AFTER"" or ""DURING/AFTER"" may be used. When populating AEENRTPT, if the value of AEONGO is ""Y"", the value of ""ONGOING"" may be used. When AEONGO refers to the Study Reference Period (defined in DM.RFSTDTC to DM.RFENDTC) the SDTMIG variable AEENRF should be populated. When AEONGO is compared to another time point, the SDTMIG variables AEENRTPT and AEENTPT should be used. Note: AEENRTPT must refer to a time-point anchor described in AEENTPT.","C66742","NY","Completed to indicate that the AE has not resolved at the time of data collection, when no end date is collected. In some cases the ongoing status may be determined from AE Outcome. The purpose of collecting this field is to help with data cleaning and monitoring; this field provides further confirmation that End Date was deliberately left blank. Often used as a tick/checkbox."
"CDASHIG v2.3","Events","AE",,"18","AEENDAT","Adverse Event End Date","The date when the adverse event resolved/ended, represented in an unambiguous date format (e.g., DD-MON-YYYY).","What was the adverse event end date?","End Date","Char","R/C","Record the date that the adverse event. resolved using this format (DD-MON-YYYY). If the AE is ongoing, leave the field blank.","AEENDTC","This does not map directly to an SDTMIG variable. For the SDTM submission dataset, concatenate all collected CDASH END DATE and TIME components and populate the SDTMIG variable AEENDTC in ISO 8601 format.","","","The definition of resolved is sponsor-specific. The preferred method is to collect a complete end date (if applicable). Partial dates (e.g., providing year only, month and year only) may be acceptable."
"CDASHIG v2.3","Events","AE",,"19","AEENTIM","End Time of Adverse Event","The time when the adverse event ended/resolved, represented in an unambiguous time format (e.g., hh:mm:ss).","What was the adverse event end time?","End Time","Char","R/C","Record the time (as complete as possible) that the adverse event resolved.","AEENDTC","This does not map directly to an SDTMIG variable. For the SDTM submission dataset, concatenate all collected CDASH END DATE and TIME components and populate the SDTMIG variable AEENDTC in ISO 8601 format.","","","Collecting the time an AE resolved is only appropriate if it can be realistically determined and if there is a scientific reason for needing to know this level of detail. An example is where the subject is under the direct care of the site at the time the event resolved and the study design is such that it is important to know the AE end time with respect to dosing."
"CDASHIG v2.3","Events","AE",,"20","AESEV","AE Severity/Intensity","The severity or intensity of the event.","What is the severity of the adverse event?","Severity","Char","R/C","The reporting physician/healthcare professional will assess the severity of the event using the sponsor-defined categories. This assessment is subjective and the reporting physician/ healthcare professional should use medical judgment to compare the reported adverse event to similar type events observed in clinical practice. Severity is not equivalent to seriousness.","AESEV","Maps directly to the SDTMIG variable listed in the SDTMIG Target column.","C66769","AESEV","Either AESEV or AETOXGR must appear on the CRF. Some studies may mandate the collection of both. Refer to ICH E3 Section 12.2.4."
"CDASHIG v2.3","Events","AE",,"21","AETOXGR","AE Standard Toxicity Grade","The grade of the severity of the event using a standard ""toxicity"" scale (e.g., NCI CTCAE).","What is the [NCI CTCAE/Name of scale (toxicity) grade] of the adverse event?","[NCI CTCAE/ Name of the scale] (Toxicity) Grade","Char","R/C","The reporting physician/healthcare professional will assess the severity of the adverse event using the specified grades scale.","AETOXGR","Maps directly to the SDTMIG variable listed in the SDTMIG Target columnget. The sponsor is expected to provide the toxicity scale name and version used to map the terms utilizing the Define-XML external codelist attributes.","","","Either AESEV or AETOXGR must appear on the CRF. Some studies may mandate the collection of both. Refer to ICH E3 Section 12.2.4. CTCAE grade is commonly used in oncology studies, although it can also be used elsewhere. Other published toxicity-like scales can also be used."
"CDASHIG v2.3","Events","AE",,"22","AESER","AE Serious Event","An indication of whether the adverse event is determined to be ""serious,"" based on what is defined in the regulations/protocol.","Was the adverse event serious?","Serious","Char","R/C","Assess if the adverse event should be classified as ""serious,"" based on the criteria defined in the regulations/protocol.","AESER","Maps directly to the SDTMIG variable listed in the SDTMIG Target column.","C66742","NY","This field is related to the individual SAE-type fields, which may or may not be collected on the CRF. Either AESER or all the SAE-type fields must be present on the CRF. Sponsors should consult with regulatory agencies regarding the collection of this data."
